File: examples/Birch_TGA_Example/Work/Cone_x4pclkgu/birch_tga_1step_5_tga.csv
s,C,g/g,1/s,W/g,W/g
Time,Temp,Mass,MLR,MCC,DSC
 12, 21.0003, 0.999993, 6.11641e-07, 0.0000000E+000, 0.121505
 24, 22.0003, 0.999985, 7.02365e-07, 0.0000000E+000, 0.121708
 36, 23.0003, 0.999976, 8.05766e-07, 0.0000000E+000, 0.121938
 48, 24.0003, 0.999966, 9.23498e-07, 0.0000000E+000, 0.122201
 60, 25.0003, 0.999954, 1.05742e-06, 0.0000000E+000, 0.1225
 72, 26.0003, 0.99994, 1.2096e-06, 0.0000000E+000, 0.12284
 84, 27.0003, 0.999925, 1.38236e-06, 0.0000000E+000, 0.123225
 96, 28.0003, 0.999907, 1.57829e-06, 0.0000000E+000, 0.123662
 108, 29.0003, 0.999887, 1.80028e-06, 0.0000000E+000, 0.124158
 120, 30.0003, 0.999864, 2.05153e-06, 0.0000000E+000, 0.124718
 132, 31.0003, 0.999838, 2.33562e-06, 0.0000000E+000, 0.125352
 144, 32.0003, 0.999808, 2.65649e-06, 0.0000000E+000, 0.126067
 156, 33.0003, 0.999774, 3.01853e-06, 0.0000000E+000, 0.126875
 168, 34.0003, 0.999735, 3.42658e-06, 0.0000000E+000, 0.127785
 180, 35.0003, 0.999691, 3.88597e-06, 0.0000000E+000, 0.128809
 192, 36.0003, 0.999641, 4.40258e-06, 0.0000000E+000, 0.12996
 204, 37.0003, 0.999585, 4.98285e-06, 0.0000000E+000, 0.131254
 216, 38.0003, 0.999522, 5.63384e-06, 0.0000000E+000, 0.132705
 228, 39.0003, 0.99945, 6.36325e-06, 0.0000000E+000, 0.13433
 240, 40.0003, 0.999369, 7.17944e-06, 0.0000000E+000, 0.136149
 252, 41.0003, 0.999277, 8.09149e-06, 0.0000000E+000, 0.13818
 264, 42.0003, 0.999174, 9.10918e-06, 0.0000000E+000, 0.140447
 276, 43.0003, 0.999058, 1.0243e-05, 0.0000000E+000, 0.142972
 288, 44.0003, 0.998928, 1.15042e-05, 0.0000000E+000, 0.145781
 300, 45.0003, 0.998781, 1.29047e-05, 0.0000000E+000, 0.148898
 312, 46.0003, 0.998617, 1.4457e-05, 0.0000000E+000, 0.152354
 324, 47.0003, 0.998434, 1.61741e-05, 0.0000000E+000, 0.156175
 336, 48.0003, 0.998228, 1.80696e-05, 0.0000000E+000, 0.160392
 348, 49.0003, 0.997999, 2.01572e-05, 0.0000000E+000, 0.165036
 360, 50.0003, 0.997744, 2.24507e-05, 0.0000000E+000, 0.170136
 372, 51.0003, 0.997459, 2.49637e-05, 0.0000000E+000, 0.175724
 384, 52.0003, 0.997144, 2.77091e-05, 0.0000000E+000, 0.181825
 396, 53.0003, 0.996793, 3.06987e-05, 0.0000000E+000, 0.188468
 408, 54.0003, 0.996406, 3.39427e-05, 0.0000000E+000, 0.195673
 420, 55.0003, 0.995978, 3.74491e-05, 0.0000000E+000, 0.203458
 432, 56.0003, 0.995506, 4.12227e-05, 0.0000000E+000, 0.211832
 444, 57.0003, 0.994987, 4.52644e-05, 0.0000000E+000, 0.220796
 456, 58.0003, 0.994418, 4.95698e-05, 0.0000000E+000, 0.230339
 468, 59.0003, 0.993797, 5.41286e-05, 0.0000000E+000, 0.240437
 480, 60.0003, 0.993118, 5.89226e-05, 0.0000000E+000, 0.251048
 492, 61.0003, 0.992381, 6.39249e-05, 0.0000000E+000, 0.262109
 504, 62.0003, 0.991583, 6.90982e-05, 0.0000000E+000, 0.273537
 516, 63.0003, 0.990723, 7.43934e-05, 0.0000000E+000, 0.285217
 528, 64.0003, 0.989798, 7.97484e-05, 0.0000000E+000, 0.297011
 540, 65.0002, 0.988809, 8.50867e-05, 0.0000000E+000, 0.308745
 552, 66.0002, 0.987756, 9.03173e-05, 0.0000000E+000, 0.320212
 564, 67.0002, 0.986642, 9.53341e-05, 0.0000000E+000, 0.331174
 576, 68.0002, 0.985469, 0.000100017, 0.0000000E+000, 0.341359
 588, 69.0002, 0.984243, 0.000104232, 0.0000000E+000, 0.350468
 600, 70.0002, 0.98297, 0.000107836, 0.0000000E+000, 0.358179
 612, 71.0002, 0.981658, 0.000110681, 0.0000000E+000, 0.364157
 624, 72.0002, 0.980317, 0.000112618, 0.0000000E+000, 0.36807
 636, 73.0002, 0.97896, 0.000113505, 0.0000000E+000, 0.369604
 648, 74.0002, 0.977598, 0.000113219, 0.0000000E+000, 0.368478
 660, 75.0002, 0.976247, 0.000111658, 0.0000000E+000, 0.364475
 672, 76.0002, 0.974924, 0.000108763, 0.0000000E+000, 0.35746
 684, 77.0002, 0.973643, 0.000104517, 0.0000000E+000, 0.347403
 696, 78.0002, 0.97242, 9.89605e-05, 0.0000000E+000, 0.334403
 708, 79.0002, 0.971272, 9.21961e-05, 0.0000000E+000, 0.318694
 720, 80.0003, 0.970212, 8.43899e-05, 0.0000000E+000, 0.300659
 732, 81.0003, 0.96925, 7.57684e-05, 0.0000000E+000, 0.280815
 744, 82.0003, 0.968396, 6.66095e-05, 0.0000000E+000, 0.259791
 756, 83.0003, 0.967653, 5.72266e-05, 0.0000000E+000, 0.2383
 768, 84.0003, 0.967022, 4.7947e-05, 0.0000000E+000, 0.217083
 780, 85.0003, 0.9665, 3.90874e-05, 0.0000000E+000, 0.196853
 792, 86.0003, 0.966081, 3.09276e-05, 0.0000000E+000, 0.178244
 804, 87.0003, 0.965755, 2.36877e-05, 0.0000000E+000, 0.161749
 816, 88.0003, 0.965509, 1.75105e-05, 0.0000000E+000, 0.147686
 828, 89.0003, 0.96533, 1.24535e-05, 0.0000000E+000, 0.136181
 840, 90.0003, 0.965205, 8.49205e-06, 0.0000000E+000, 0.127175
 852, 91.0004, 0.965122, 5.53148e-06, 0.0000000E+000, 0.120447
 864, 92.0004, 0.965069, 3.42787e-06, 0.0000000E+000, 0.11567
 876, 93.0004, 0.965037, 2.01216e-06, 0.0000000E+000, 0.112455
 888, 94.0004, 0.965019, 1.11352e-06, 0.0000000E+000, 0.110416
 900, 95.0004, 0.965009, 5.77975e-07, 0.0000000E+000, 0.109201
 912, 96.0004, 0.965004, 2.79825e-07, 0.0000000E+000, 0.108525
 924, 97.0004, 0.965002, 1.25613e-07, 0.0000000E+000, 0.108175
 936, 98.0004, 0.965001, 5.19441e-08, 0.0000000E+000, 0.108008
 948, 99.0004, 0.965, 1.965e-08, 0.0000000E+000, 0.107935
 960, 100, 0.965, 6.74893e-09, 0.0000000E+000, 0.107906
 972, 101, 0.965, 2.08746e-09, 0.0000000E+000, 0.107895
 984, 102, 0.965, 5.76366e-10, 0.0000000E+000, 0.107892
 996, 103, 0.965, 1.40723e-10, 0.0000000E+000, 0.107891
 1008, 104, 0.965, 3.00736e-11, 0.0000000E+000, 0.10789
 1020, 105, 0.965, 5.56399e-12, 0.0000000E+000, 0.10789
 1032, 106, 0.965, 8.80702e-13, 0.0000000E+000, 0.10789
 1044, 107, 0.965, 1.17755e-13, 0.0000000E+000, 0.10789
 1056, 108, 0.965, 1.31184e-14, 0.0000000E+000, 0.10789
 1068, 109, 0.965, 1.19987e-15, 0.0000000E+000, 0.10789
 1080, 110, 0.965, 8.86853e-17, 0.0000000E+000, 0.10789
 1092, 111, 0.965, 5.20756e-18, 0.0000000E+000, 0.10789
 1104, 112, 0.965, 2.38524e-19, 0.0000000E+000, 0.10789
 1116, 113, 0.965, 8.35617e-21, 0.0000000E+000, 0.10789
 1128, 114, 0.965, 2.19227e-22, 0.0000000E+000, 0.10789
 1140, 115, 0.965, 4.21071e-24, 0.0000000E+000, 0.10789
 1152, 116, 0.965, 5.77881e-26, 0.0000000E+000, 0.10789
 1164, 117, 0.965, 5.52112e-28, 0.0000000E+000, 0.10789
 1176, 118, 0.965, 3.57098e-30, 0.0000000E+000, 0.10789
 1188, 119, 0.965, 1.51746e-32, 0.0000000E+000, 0.10789
 1200, 120, 0.965, 4.10284e-35, 0.0000000E+000, 0.10789
 1212, 121, 0.965, 6.81977e-38, 0.0000000E+000, 0.10789
 1224, 122, 0.965, 0.0000000E+000, 0.0000000E+000, 0.10789
 1236, 123, 0.965, 0.0000000E+000, 0.0000000E+000, 0.10789
 1248, 124, 0.965, 0.0000000E+000, 0.0000000E+000, 0.10789
 1260, 125, 0.965, 0.0000000E+000, 0.0000000E+000, 0.10789
 1272, 126, 0.965, 0.0000000E+000, 0.0000000E+000, 0.10789
 1284, 127, 0.965, 0.0000000E+000, 0.0000000E+000, 0.10789
 1296, 128, 0.965, 0.0000000E+000, 0.0000000E+000, 0.10789
 1308, 129, 0.965, 0.0000000E+000, 0.0000000E+000, 0.10789
 1320, 130, 0.965, 0.0000000E+000, 1.40028e-38, 0.10789
 1332, 131, 0.965, 0.0000000E+000, 1.8939e-38, 0.10789
 1344, 132, 0.965, 0.0000000E+000, 2.55772e-38, 0.10789
 1356, 133, 0.965, 0.0000000E+000, 3.44909e-38, 0.10789
 1368, 134, 0.965, 0.0000000E+000, 4.64428e-38, 0.10789
 1380, 135, 0.965, 0.0000000E+000, 6.24453e-38, 0.10789
 1392, 136, 0.965, 0.0000000E+000, 8.38401e-38, 0.10789
 1404, 137, 0.965, 0.0000000E+000, 1.12404e-37, 0.10789
 1416, 138, 0.965, 0.0000000E+000, 1.50484e-37, 0.10789
 1428, 139, 0.965, 0.0000000E+000, 2.0118e-37, 0.10789
 1440, 140, 0.965, 0.0000000E+000, 2.68577e-37, 0.10789
 1452, 141, 0.965, 0.0000000E+000, 3.58052e-37, 0.10789
 1464, 142, 0.965, 0.0000000E+000, 4.76675e-37, 0.10789
 1476, 143, 0.965, 0.0000000E+000, 6.33726e-37, 0.10789
 1488, 144, 0.965, 0.0000000E+000, 8.41371e-37, 0.10789
 1500, 145, 0.965, 0.0000000E+000, 1.11554e-36, 0.10789
 1512, 146, 0.965, 0.0000000E+000, 1.47706e-36, 0.10789
 1524, 147, 0.965, 0.0000000E+000, 1.95313e-36, 0.10789
 1536, 148, 0.965, 0.0000000E+000, 2.57921e-36, 0.10789
 1548, 149, 0.965, 0.0000000E+000, 3.4015e-36, 0.10789
 1560, 150, 0.965, 0.0000000E+000, 4.48009e-36, 0.10789
 1572, 151, 0.965, 0.0000000E+000, 5.89304e-36, 0.10789
 1584, 152, 0.965, 0.0000000E+000, 7.74161e-36, 0.10789
 1596, 153, 0.965, 0.0000000E+000, 1.0157e-35, 0.10789
 1608, 154, 0.965, 0.0000000E+000, 1.33092e-35, 0.10789
 1620, 155, 0.965, 0.0000000E+000, 1.74175e-35, 0.10789
 1632, 156, 0.965, 0.0000000E+000, 2.27655e-35, 0.10789
 1644, 157, 0.965, 0.0000000E+000, 2.97186e-35, 0.10789
 1656, 158, 0.965, 0.0000000E+000, 3.87473e-35, 0.10789
 1668, 159, 0.965, 0.0000000E+000, 5.0457e-35, 0.10789
 1680, 160, 0.965, 0.0000000E+000, 6.56254e-35, 0.10789
 1692, 161, 0.965, 0.0000000E+000, 8.52505e-35, 0.10789
 1704, 162, 0.965, 0.0000000E+000, 1.10611e-34, 0.10789
 1716, 163, 0.965, 0.0000000E+000, 1.43345e-34, 0.10789
 1728, 164, 0.965, 0.0000000E+000, 1.85546e-34, 0.10789
 1740, 165, 0.965, 0.0000000E+000, 2.39888e-34, 0.10789
 1752, 166, 0.965, 0.0000000E+000, 3.09784e-34, 0.10789
 1764, 167, 0.965, 0.0000000E+000, 3.99579e-34, 0.10789
 1776, 168, 0.965, 1.28702e-38, 5.14809e-34, 0.10789
 1788, 169, 0.965, 1.65627e-38, 6.62509e-34, 0.10789
 1800, 170, 0.965, 2.12904e-38, 8.51615e-34, 0.10789
 1812, 171, 0.965, 2.73365e-38, 1.09346e-33, 0.10789
 1824, 172, 0.965, 3.50603e-38, 1.40241e-33, 0.10789
 1836, 173, 0.965, 4.49163e-38, 1.79665e-33, 0.10789
 1848, 174, 0.965, 5.74792e-38, 2.29917e-33, 0.10789
 1860, 175, 0.965, 7.3475e-38, 2.939e-33, 0.10789
 1872, 176, 0.965, 9.38196e-38, 3.75278e-33, 0.10789
 1884, 177, 0.965, 1.19667e-37, 4.7867e-33, 0.10789
 1896, 178, 0.965, 1.52472e-37, 6.09887e-33, 0.10789
 1908, 179, 0.965, 1.94061e-37, 7.76244e-33, 0.10789
 1920, 180, 0.965, 2.46731e-37, 9.86925e-33, 0.10789
 1932, 181, 0.965, 3.13365e-37, 1.25346e-32, 0.10789
 1944, 182, 0.965, 3.97577e-37, 1.59031e-32, 0.10789
 1956, 183, 0.965, 5.03894e-37, 2.01558e-32, 0.10789
 1968, 184, 0.965, 6.37979e-37, 2.55192e-32, 0.10789
 1980, 185, 0.965, 8.06912e-37, 3.22765e-32, 0.10789
 1992, 186, 0.965, 1.01953e-36, 4.07813e-32, 0.10789
 2004, 187, 0.965, 1.28687e-36, 5.14749e-32, 0.10789
 2016, 188, 0.965, 1.62267e-36, 6.49069e-32, 0.10789
 2028, 189, 0.965, 2.04404e-36, 8.17618e-32, 0.10789
 2040, 190, 0.965, 2.57227e-36, 1.02891e-31, 0.10789
 2052, 191, 0.965, 3.2338e-36, 1.29352e-31, 0.10789
 2064, 192, 0.965, 4.06146e-36, 1.62459e-31, 0.10789
 2076, 193, 0.965, 5.09597e-36, 2.03839e-31, 0.10789
 2088, 194, 0.965, 6.38778e-36, 2.55511e-31, 0.10789
 2100, 195, 0.965, 7.99932e-36, 3.19973e-31, 0.10789
 2112, 196, 0.965, 1.00078e-35, 4.00313e-31, 0.10789
 2124, 197, 0.965, 1.25087e-35, 5.00349e-31, 0.10789
 2136, 198, 0.965, 1.56198e-35, 6.24791e-31, 0.10789
 2148, 199, 0.965, 1.94862e-35, 7.7945e-31, 0.10789
 2160, 200, 0.965, 2.42871e-35, 9.71483e-31, 0.10789
 2172, 201, 0.965, 3.02426e-35, 1.2097e-30, 0.10789
 2184, 202, 0.965, 3.76237e-35, 1.50495e-30, 0.10789
 2196, 203, 0.965, 4.67634e-35, 1.87054e-30, 0.10789
 2208, 204, 0.965, 5.80704e-35, 2.32282e-30, 0.10789
 2220, 205, 0.965, 7.2046e-35, 2.88184e-30, 0.10789
 2232, 206, 0.965, 8.93047e-35, 3.57219e-30, 0.10789
 2244, 207, 0.965, 1.10599e-34, 4.42395e-30, 0.10789
 2256, 208, 0.965, 1.36848e-34, 5.47394e-30, 0.10789
 2268, 209, 0.965, 1.69179e-34, 6.76715e-30, 0.10789
 2280, 210, 0.965, 2.08964e-34, 8.35855e-30, 0.10789
 2292, 211, 0.965, 2.57879e-34, 1.03152e-29, 0.10789
 2304, 212, 0.965, 3.1797e-34, 1.27188e-29, 0.10789
 2316, 213, 0.965, 3.91725e-34, 1.5669e-29, 0.10789
 2328, 214, 0.965, 4.82174e-34, 1.9287e-29, 0.10789
 2340, 215, 0.965, 5.93004e-34, 2.37202e-29, 0.10789
 2352, 216, 0.965, 7.28692e-34, 2.91477e-29, 0.10789
 2364, 217, 0.965, 8.94674e-34, 3.5787e-29, 0.10789
 2376, 218, 0.965, 1.09755e-33, 4.39019e-29, 0.10789
 2388, 219, 0.965, 1.3453e-33, 5.38121e-29, 0.10789
 2400, 220, 0.965, 1.64763e-33, 6.59051e-29, 0.10789
 2412, 221, 0.965, 2.01624e-33, 8.06495e-29, 0.10789
 2424, 222, 0.965, 2.4653e-33, 9.86121e-29, 0.10789
 2436, 223, 0.965, 3.01194e-33, 1.20478e-28, 0.10789
 2448, 224, 0.965, 3.67682e-33, 1.47073e-28, 0.10789
 2460, 225, 0.965, 4.48489e-33, 1.79395e-28, 0.10789
 2472, 226, 0.965, 5.46619e-33, 2.18647e-28, 0.10789
 2484, 227, 0.965, 6.65693e-33, 2.66277e-28, 0.10789
 2496, 228, 0.965, 8.10068e-33, 3.24027e-28, 0.10789
 2508, 229, 0.965, 9.84985e-33, 3.93994e-28, 0.10789
 2520, 230, 0.965, 1.19674e-32, 4.78697e-28, 0.10789
 2532, 231, 0.965, 1.4529e-32, 5.8116e-28, 0.10789
 2544, 232, 0.965, 1.76253e-32, 7.05014e-28, 0.10789
 2556, 233, 0.965, 2.13652e-32, 8.54609e-28, 0.10789
 2568, 234, 0.965, 2.5879e-32, 1.03516e-27, 0.10789
 2580, 235, 0.965, 3.13228e-32, 1.25291e-27, 0.10789
 2592, 236, 0.965, 3.78834e-32, 1.51533e-27, 0.10789
 2604, 237, 0.965, 4.57838e-32, 1.83135e-27, 0.10789
 2616, 238, 0.965, 5.52909e-32, 2.21164e-27, 0.10789
 2628, 239, 0.965, 6.6723e-32, 2.66892e-27, 0.10789
 2640, 240, 0.965, 8.04598e-32, 3.21839e-27, 0.10789
 2652, 241, 0.965, 9.69541e-32, 3.87816e-27, 0.10789
 2664, 242, 0.965, 1.16745e-31, 4.66981e-27, 0.10789
 2676, 243, 0.965, 1.40475e-31, 5.619e-27, 0.10789
 2688, 244, 0.965, 1.68907e-31, 6.7563e-27, 0.10789
 2700, 245, 0.965, 2.0295e-31, 8.118e-27, 0.10789
 2712, 246, 0.965, 2.43681e-31, 9.74726e-27, 0.10789
 2724, 247, 0.965, 2.92382e-31, 1.16953e-26, 0.10789
 2736, 248, 0.965, 3.5057e-31, 1.40228e-26, 0.10789
 2748, 249, 0.965, 4.20046e-31, 1.68018e-26, 0.10789
 2760, 250, 0.965, 5.02943e-31, 2.01177e-26, 0.10789
 2772, 251, 0.965, 6.01787e-31, 2.40715e-26, 0.10789
 2784, 252, 0.965, 7.19564e-31, 2.87826e-26, 0.10789
 2796, 253, 0.965, 8.59807e-31, 3.43923e-26, 0.10789
 2808, 254, 0.965, 1.02669e-30, 4.10676e-26, 0.10789
 2820, 255, 0.965, 1.22514e-30, 4.90057e-26, 0.10789
 2832, 256, 0.965, 1.46098e-30, 5.8439e-26, 0.10789
 2844, 257, 0.965, 1.74105e-30, 6.9642e-26, 0.10789
 2856, 258, 0.965, 2.07344e-30, 8.29378e-26, 0.10789
 2868, 259, 0.965, 2.46768e-30, 9.87071e-26, 0.10789
 2880, 260, 0.965, 2.93495e-30, 1.17398e-25, 0.10789
 2892, 261, 0.965, 3.48844e-30, 1.39538e-25, 0.10789
 2904, 262, 0.965, 4.14364e-30, 1.65746e-25, 0.10789
 2916, 263, 0.965, 4.91873e-30, 1.96749e-25, 0.10789
 2928, 264, 0.965, 5.83508e-30, 2.33403e-25, 0.10789
 2940, 265, 0.965, 6.91776e-30, 2.7671e-25, 0.10789
 2952, 266, 0.965, 8.19614e-30, 3.27846e-25, 0.10789
 2964, 267, 0.965, 9.70467e-30, 3.88187e-25, 0.10789
 2976, 268, 0.965, 1.14837e-29, 4.59347e-25, 0.10789
 2988, 269, 0.965, 1.35804e-29, 5.43215e-25, 0.10789
 3000, 270, 0.965, 1.605e-29, 6.41999e-25, 0.10789
 3012, 271, 0.965, 1.8957e-29, 7.58281e-25, 0.10789
 3024, 272, 0.965, 2.23769e-29, 8.95077e-25, 0.10789
 3036, 273, 0.965, 2.63978e-29, 1.05591e-24, 0.10789
 3048, 274, 0.965, 3.11223e-29, 1.24489e-24, 0.10789
 3060, 275, 0.965, 3.66703e-29, 1.46681e-24, 0.10789
 3072, 276, 0.965, 4.31816e-29, 1.72726e-24, 0.10789
 3084, 277, 0.965, 5.08189e-29, 2.03275e-24, 0.10789
 3096, 278, 0.965, 5.97715e-29, 2.39086e-24, 0.10789
 3108, 279, 0.965, 7.026e-29, 2.8104e-24, 0.10789
 3120, 280, 0.965, 8.25407e-29, 3.30163e-24, 0.10789
 3132, 281, 0.965, 9.69117e-29, 3.87647e-24, 0.10789
 3144, 282, 0.965, 1.13719e-28, 4.54876e-24, 0.10789
 3156, 283, 0.965, 1.33364e-28, 5.33457e-24, 0.10789
 3168, 284, 0.965, 1.56314e-28, 6.25256e-24, 0.10789
 3180, 285, 0.965, 1.83109e-28, 7.32435e-24, 0.10789
 3192, 286, 0.965, 2.14375e-28, 8.57501e-24, 0.10789
 3204, 287, 0.965, 2.50839e-28, 1.00336e-23, 0.10789
 3216, 288, 0.965, 2.93341e-28, 1.17337e-23, 0.10789
 3228, 289, 0.965, 3.42854e-28, 1.37142e-23, 0.10789
 3240, 290, 0.965, 4.00502e-28, 1.60201e-23, 0.10789
 3252, 291, 0.965, 4.67585e-28, 1.87034e-23, 0.10789
 3264, 292, 0.965, 5.45606e-28, 2.18242e-23, 0.10789
 3276, 293, 0.965, 6.36298e-28, 2.54519e-23, 0.10789
 3288, 294, 0.965, 7.41663e-28, 2.96665e-23, 0.10789
 3300, 295, 0.965, 8.64009e-28, 3.45604e-23, 0.10789
 3312, 296, 0.965, 1.006e-27, 4.02399e-23, 0.10789
 3324, 297, 0.965, 1.17069e-27, 4.68278e-23, 0.10789
 3336, 298, 0.965, 1.36163e-27, 5.44653e-23, 0.10789
 3348, 299, 0.965, 1.58288e-27, 6.3315e-23, 0.10789
 3360, 300, 0.965, 1.8391e-27, 7.3564e-23, 0.10789
 3372, 301, 0.965, 2.13569e-27, 8.54274e-23, 0.10789
 3384, 302, 0.965, 2.47881e-27, 9.91524e-23, 0.10789
 3396, 303, 0.965, 2.87557e-27, 1.15023e-22, 0.10789
 3408, 304, 0.965, 3.33413e-27, 1.33365e-22, 0.10789
 3420, 305, 0.965, 3.86383e-27, 1.54553e-22, 0.10789
 3432, 306, 0.965, 4.47541e-27, 1.79016e-22, 0.10789
 3444, 307, 0.965, 5.18116e-27, 2.07246e-22, 0.10789
 3456, 308, 0.965, 5.99519e-27, 2.39808e-22, 0.10789
 3468, 309, 0.965, 6.93363e-27, 2.77345e-22, 0.10789
 3480, 310, 0.965, 8.01497e-27, 3.20599e-22, 0.10789
 3492, 311, 0.965, 9.26036e-27, 3.70414e-22, 0.10789
 3504, 312, 0.965, 1.0694e-26, 4.27759e-22, 0.10789
 3516, 313, 0.965, 1.23435e-26, 4.93739e-22, 0.10789
 3528, 314, 0.965, 1.42404e-26, 5.69617e-22, 0.10789
 3540, 315, 0.965, 1.64209e-26, 6.56838e-22, 0.10789
 3552, 316, 0.965, 1.89262e-26, 7.57047e-22, 0.10789
 3564, 317, 0.965, 2.18031e-26, 8.72124e-22, 0.10789
 3576, 318, 0.965, 2.51053e-26, 1.00421e-21, 0.10789
 3588, 319, 0.965, 2.8894e-26, 1.15576e-21, 0.10789
 3600, 320, 0.965, 3.32386e-26, 1.32954e-21, 0.10789
 3612, 321, 0.965, 3.82184e-26, 1.52874e-21, 0.10789
 3624, 322, 0.965, 4.39237e-26, 1.75695e-21, 0.10789
 3636, 323, 0.965, 5.04572e-26, 2.01829e-21, 0.10789
 3648, 324, 0.965, 5.79356e-26, 2.31742e-21, 0.10789
 3660, 325, 0.965, 6.64916e-26, 2.65967e-21, 0.10789
 3672, 326, 0.965, 7.62762e-26, 3.05105e-21, 0.10789
 3684, 327, 0.965, 8.74605e-26, 3.49842e-21, 0.10789
 3696, 328, 0.965, 1.00239e-25, 4.00957e-21, 0.10789
 3708, 329, 0.965, 1.14833e-25, 4.59331e-21, 0.10789
 3720, 330, 0.965, 1.31492e-25, 5.25968e-21, 0.10789
 3732, 331, 0.965, 1.505e-25, 6.02001e-21, 0.10789
 3744, 332, 0.965, 1.7218e-25, 6.88718e-21, 0.10789
 3756, 333, 0.965, 1.96894e-25, 7.87577e-21, 0.10789
 3768, 334, 0.965, 2.25057e-25, 9.00229e-21, 0.10789
 3780, 335, 0.965, 2.57135e-25, 1.02854e-20, 0.10789
 3792, 336, 0.965, 2.93657e-25, 1.17463e-20, 0.10789
 3804, 337, 0.965, 3.3522e-25, 1.34088e-20, 0.10789
 3816, 338, 0.965, 3.825e-25, 1.53e-20, 0.10789
 3828, 339, 0.965, 4.36261e-25, 1.74504e-20, 0.10789
 3840, 340, 0.965, 4.97364e-25, 1.98945e-20, 0.10789
 3852, 341, 0.965, 5.66783e-25, 2.26713e-20, 0.10789
 3864, 342, 0.965, 6.45617e-25, 2.58247e-20, 0.10789
 3876, 343, 0.965, 7.35105e-25, 2.94042e-20, 0.10789
 3888, 344, 0.965, 8.36645e-25, 3.34658e-20, 0.10789
 3900, 345, 0.965, 9.51813e-25, 3.80725e-20, 0.10789
 3912, 346, 0.965, 1.08238e-24, 4.32953e-20, 0.10789
 3924, 347, 0.965, 1.23035e-24, 4.92141e-20, 0.10789
 3936, 348, 0.965, 1.39798e-24, 5.5919e-20, 0.10789
 3948, 349, 0.965, 1.58778e-24, 6.35113e-20, 0.10789
 3960, 350, 0.965, 1.80262e-24, 7.2105e-20, 0.10789
 3972, 351, 0.965, 2.0457e-24, 8.18282e-20, 0.10789
 3984, 352, 0.965, 2.32062e-24, 9.28249e-20, 0.10789
 3996, 353, 0.965, 2.63143e-24, 1.05257e-19, 0.10789
 4008, 354, 0.965, 2.98266e-24, 1.19307e-19, 0.10789
 4020, 355, 0.965, 3.37943e-24, 1.35177e-19, 0.10789
 4032, 356, 0.965, 3.82746e-24, 1.53099e-19, 0.10789
 4044, 357, 0.965, 4.33318e-24, 1.73327e-19, 0.10789
 4056, 358, 0.965, 4.90378e-24, 1.96151e-19, 0.10789
 4068, 359, 0.965, 5.54736e-24, 2.21894e-19, 0.10789
 4080, 360, 0.965, 6.27295e-24, 2.50918e-19, 0.10789
 4092, 361, 0.965, 7.0907e-24, 2.83628e-19, 0.10789
 4104, 362, 0.965, 8.01195e-24, 3.20478e-19, 0.10789
 4116, 363, 0.965, 9.04943e-24, 3.61977e-19, 0.10789
 4128, 364, 0.965, 1.02173e-23, 4.08694e-19, 0.10789
 4140, 365, 0.965, 1.15316e-23, 4.61264e-19, 0.10789
 4152, 366, 0.965, 1.301e-23, 5.204e-19, 0.10789
 4164, 367, 0.965, 1.46724e-23, 5.86895e-19, 0.10789
 4176, 368, 0.965, 1.6541e-23, 6.61639e-19, 0.10789
 4188, 369, 0.965, 1.86406e-23, 7.45624e-19, 0.10789
 4200, 370, 0.965, 2.09989e-23, 8.39956e-19, 0.10789
 4212, 371, 0.965, 2.36468e-23, 9.45874e-19, 0.10789
 4224, 372, 0.965, 2.66189e-23, 1.06476e-18, 0.10789
 4236, 373, 0.965, 2.99535e-23, 1.19814e-18, 0.10789
 4248, 374, 0.965, 3.36935e-23, 1.34774e-18, 0.10789
 4260, 375, 0.965, 3.78868e-23, 1.51547e-18, 0.10789
 4272, 376, 0.965, 4.25865e-23, 1.70346e-18, 0.10789
 4284, 377, 0.965, 4.7852e-23, 1.91408e-18, 0.10789
 4296, 378, 0.965, 5.37493e-23, 2.14997e-18, 0.10789
 4308, 379, 0.965, 6.03519e-23, 2.41407e-18, 0.10789
 4320, 380, 0.965, 6.77414e-23, 2.70966e-18, 0.10789
 4332, 381, 0.965, 7.6009e-23, 3.04036e-18, 0.10789
 4344, 382, 0.965, 8.52555e-23, 3.41022e-18, 0.10789
 4356, 383, 0.965, 9.55935e-23, 3.82374e-18, 0.10789
 4368, 384, 0.965, 1.07148e-22, 4.28591e-18, 0.10789
 4380, 385, 0.965, 1.20057e-22, 4.80227e-18, 0.10789
 4392, 386, 0.965, 1.34475e-22, 5.37899e-18, 0.10789
 4404, 387, 0.965, 1.50572e-22, 6.0229e-18, 0.10789
 4416, 388, 0.965, 1.6854e-22, 6.74158e-18, 0.10789
 4428, 389, 0.965, 1.88586e-22, 7.54345e-18, 0.10789
 4440, 390, 0.965, 2.10946e-22, 8.43784e-18, 0.10789
 4452, 391, 0.965, 2.35877e-22, 9.43509e-18, 0.10789
 4464, 392, 0.965, 2.63666e-22, 1.05467e-17, 0.10789
 4476, 393, 0.965, 2.94631e-22, 1.17852e-17, 0.10789
 4488, 394, 0.965, 3.29122e-22, 1.31649e-17, 0.10789
 4500, 395, 0.965, 3.6753e-22, 1.47012e-17, 0.10789
 4512, 396, 0.965, 4.10284e-22, 1.64113e-17, 0.10789
 4524, 397, 0.965, 4.57861e-22, 1.83144e-17, 0.10789
 4536, 398, 0.965, 5.10788e-22, 2.04315e-17, 0.10789
 4548, 399, 0.965, 5.69648e-22, 2.27859e-17, 0.10789
 4560, 400, 0.965, 6.35084e-22, 2.54034e-17, 0.10789
 4572, 401, 0.965, 7.07809e-22, 2.83124e-17, 0.10789
 4584, 402, 0.965, 7.88609e-22, 3.15444e-17, 0.10789
 4596, 403, 0.965, 8.78352e-22, 3.51341e-17, 0.10789
 4608, 404, 0.965, 9.77996e-22, 3.91198e-17, 0.10789
 4620, 405, 0.965, 1.0886e-21, 4.35439e-17, 0.10789
 4632, 406, 0.965, 1.21133e-21, 4.84531e-17, 0.10789
 4644, 407, 0.965, 1.34747e-21, 5.38988e-17, 0.10789
 4656, 408, 0.965, 1.49844e-21, 5.99377e-17, 0.10789
 4668, 409, 0.965, 1.66581e-21, 6.66325e-17, 0.10789
 4680, 410, 0.965, 1.85131e-21, 7.40522e-17, 0.10789
 4692, 411, 0.965, 2.05682e-21, 8.22727e-17, 0.10789
 4704, 412, 0.965, 2.28444e-21, 9.13776e-17, 0.10789
 4716, 413, 0.965, 2.53648e-21, 1.01459e-16, 0.10789
 4728, 414, 0.965, 2.81546e-21, 1.12619e-16, 0.10789
 4740, 415, 0.965, 3.12419e-21, 1.24968e-16, 0.10789
 4752, 416, 0.965, 3.46572e-21, 1.38629e-16, 0.10789
 4764, 417, 0.965, 3.84343e-21, 1.53737e-16, 0.10789
 4776, 418, 0.965, 4.26103e-21, 1.70441e-16, 0.10789
 4788, 419, 0.965, 4.72259e-21, 1.88904e-16, 0.10789
 4800, 420, 0.965, 5.2326e-21, 2.09304e-16, 0.10789
 4812, 421, 0.965, 5.79598e-21, 2.31839e-16, 0.10789
 4824, 422, 0.965, 6.41812e-21, 2.56725e-16, 0.10789
 4836, 423, 0.965, 7.10496e-21, 2.84199e-16, 0.10789
 4848, 424, 0.965, 7.86302e-21, 3.14521e-16, 0.10789
 4860, 425, 0.965, 8.69942e-21, 3.47977e-16, 0.10789
 4872, 426, 0.965, 9.62201e-21, 3.8488e-16, 0.10789
 4884, 427, 0.965, 1.06394e-20, 4.25575e-16, 0.10789
 4896, 428, 0.965, 1.17609e-20, 4.70438e-16, 0.10789
 4908, 429, 0.965, 1.2997e-20, 5.19882e-16, 0.10789
 4920, 430, 0.965, 1.4359e-20, 5.74358e-16, 0.10789
 4932, 431, 0.965, 1.58591e-20, 6.34364e-16, 0.10789
 4944, 432, 0.965, 1.7511e-20, 7.00441e-16, 0.10789
 4956, 433, 0.965, 1.93296e-20, 7.73185e-16, 0.10789
 4968, 434, 0.965, 2.13311e-20, 8.53244e-16, 0.10789
 4980, 435, 0.965, 2.35333e-20, 9.41331e-16, 0.10789
 4992, 436, 0.965, 2.59556e-20, 1.03822e-15, 0.10789
 5004, 437, 0.965, 2.86194e-20, 1.14477e-15, 0.10789
 5016, 438, 0.965, 3.15478e-20, 1.26191e-15, 0.10789
 5028, 439, 0.965, 3.47665e-20, 1.39066e-15, 0.10789
 5040, 440, 0.965, 3.8303e-20, 1.53212e-15, 0.10789
 5052, 441, 0.965, 4.21879e-20, 1.68752e-15, 0.10789
 5064, 442, 0.965, 4.64542e-20, 1.85817e-15, 0.10789
 5076, 443, 0.965, 5.11382e-20, 2.04553e-15, 0.10789
 5088, 444, 0.965, 5.62794e-20, 2.25118e-15, 0.10789
 5100, 445, 0.965, 6.1921e-20, 2.47684e-15, 0.10789
 5112, 446, 0.965, 6.811e-20, 2.7244e-15, 0.10789
 5124, 447, 0.965, 7.48978e-20, 2.99591e-15, 0.10789
 5136, 448, 0.965, 8.23403e-20, 3.29361e-15, 0.10789
 5148, 449, 0.965, 9.04987e-20, 3.61995e-15, 0.10789
 5160, 450, 0.965, 9.94394e-20, 3.97757e-15, 0.10789
 5172, 451, 0.965, 1.09235e-19, 4.3694e-15, 0.10789
 5184, 452, 0.965, 1.19964e-19, 4.79857e-15, 0.10789
 5196, 453, 0.965, 1.31714e-19, 5.26854e-15, 0.10789
 5208, 454, 0.965, 1.44576e-19, 5.78306e-15, 0.10789
 5220, 455, 0.965, 1.58655e-19, 6.34619e-15, 0.10789
 5232, 456, 0.965, 1.7406e-19, 6.96239e-15, 0.10789
 5244, 457, 0.965, 1.90912e-19, 7.63648e-15, 0.10789
 5256, 458, 0.965, 2.09343e-19, 8.37372e-15, 0.10789
 5268, 459, 0.965, 2.29495e-19, 9.17982e-15, 0.10789
 5280, 460, 0.965, 2.51525e-19, 1.0061e-14, 0.10789
 5292, 461, 0.965, 2.756e-19, 1.1024e-14, 0.10789
 5304, 462, 0.965, 3.01905e-19, 1.20762e-14, 0.10789
 5316, 463, 0.965, 3.30638e-19, 1.32255e-14, 0.10789
 5328, 464, 0.965, 3.62017e-19, 1.44807e-14, 0.10789
 5340, 465, 0.965, 3.96276e-19, 1.5851e-14, 0.10789
 5352, 466, 0.965, 4.33671e-19, 1.73468e-14, 0.10789
 5364, 467, 0.965, 4.74479e-19, 1.89792e-14, 0.10789
 5376, 468, 0.965, 5.19002e-19, 2.07601e-14, 0.10789
 5388, 469, 0.965, 5.67565e-19, 2.27026e-14, 0.10789
 5400, 470, 0.965, 6.20522e-19, 2.48209e-14, 0.10789
 5412, 471, 0.965, 6.78259e-19, 2.71303e-14, 0.10789
 5424, 472, 0.965, 7.4119e-19, 2.96476e-14, 0.10789
 5436, 473, 0.965, 8.09768e-19, 3.23907e-14, 0.10789
 5448, 474, 0.965, 8.84481e-19, 3.53792e-14, 0.10789
 5460, 475, 0.965, 9.6586e-19, 3.86344e-14, 0.10789
 5472, 476, 0.965, 1.05448e-18, 4.21791e-14, 0.10789
 5484, 477, 0.965, 1.15096e-18, 4.60383e-14, 0.10789
 5496, 478, 0.965, 1.25597e-18, 5.02389e-14, 0.10789
 5508, 479, 0.965, 1.37025e-18, 5.481e-14, 0.10789
 5520, 480, 0.965, 1.49458e-18, 5.97832e-14, 0.10789
 5532, 481, 0.965, 1.62982e-18, 6.51927e-14, 0.10789
 5544, 482, 0.965, 1.77688e-18, 7.10753e-14, 0.10789
 5556, 483, 0.965, 1.93677e-18, 7.7471e-14, 0.10789
 5568, 484, 0.965, 2.11057e-18, 8.4423e-14, 0.10789
 5580, 485, 0.965, 2.29945e-18, 9.1978e-14, 0.10789
 5592, 486, 0.965, 2.50466e-18, 1.00186e-13, 0.10789
 5604, 487, 0.965, 2.72757e-18, 1.09103e-13, 0.10789
 5616, 488, 0.965, 2.96966e-18, 1.18786e-13, 0.10789
 5628, 489, 0.965, 3.23251e-18, 1.293e-13, 0.10789
 5640, 490, 0.965, 3.51784e-18, 1.40714e-13, 0.10789
 5652, 491, 0.965, 3.82752e-18, 1.53101e-13, 0.10789
 5664, 492, 0.965, 4.16353e-18, 1.66541e-13, 0.10789
 5676, 493, 0.965, 4.52805e-18, 1.81122e-13, 0.10789
 5688, 494, 0.965, 4.92341e-18, 1.96936e-13, 0.10789
 5700, 495, 0.965, 5.35211e-18, 2.14085e-13, 0.10789
 5712, 496, 0.965, 5.81689e-18, 2.32676e-13, 0.10789
 5724, 497, 0.965, 6.32066e-18, 2.52826e-13, 0.10789
 5736, 498, 0.965, 6.86658e-18, 2.74663e-13, 0.10789
 5748, 499, 0.965, 7.45804e-18, 2.98322e-13, 0.10789
 5760, 500, 0.965, 8.09873e-18, 3.23949e-13, 0.10789
 5772, 501, 0.965, 8.79258e-18, 3.51703e-13, 0.10789
 5784, 502, 0.965, 9.54385e-18, 3.81754e-13, 0.10789
 5796, 503, 0.965, 1.03571e-17, 4.14285e-13, 0.10789
 5808, 504, 0.965, 1.12373e-17, 4.49494e-13, 0.10789
 5820, 505, 0.965, 1.21898e-17, 4.87592e-13, 0.10789
 5832, 506, 0.965, 1.32202e-17, 5.28809e-13, 0.10789
 5844, 507, 0.965, 1.43348e-17, 5.73392e-13, 0.10789
 5856, 508, 0.965, 1.55401e-17, 6.21604e-13, 0.10789
 5868, 509, 0.965, 1.68433e-17, 6.7373e-13, 0.10789
 5880, 510, 0.965, 1.82519e-17, 7.30078e-13, 0.10789
 5892, 511, 0.965, 1.97744e-17, 7.90976e-13, 0.10789
 5904, 512, 0.965, 2.14195e-17, 8.56779e-13, 0.10789
 5916, 513, 0.965, 2.31967e-17, 9.27868e-13, 0.10789
 5928, 514, 0.965, 2.51163e-17, 1.00465e-12, 0.10789
 5940, 515, 0.965, 2.71892e-17, 1.08757e-12, 0.10789
 5952, 516, 0.965, 2.94274e-17, 1.17709e-12, 0.10789
 5964, 517, 0.965, 3.18434e-17, 1.27373e-12, 0.10789
 5976, 518, 0.965, 3.44508e-17, 1.37803e-12, 0.10789
 5988, 519, 0.965, 3.72644e-17, 1.49058e-12, 0.10789
 6000, 520, 0.965, 4.02998e-17, 1.61199e-12, 0.10789
 6012, 521, 0.965, 4.35738e-17, 1.74295e-12, 0.10789
 6024, 522, 0.965, 4.71046e-17, 1.88418e-12, 0.10789
 6036, 523, 0.965, 5.09115e-17, 2.03646e-12, 0.10789
 6048, 524, 0.965, 5.50153e-17, 2.20061e-12, 0.10789
 6060, 525, 0.965, 5.94384e-17, 2.37754e-12, 0.10789
 6072, 526, 0.965, 6.42047e-17, 2.56819e-12, 0.10789
 6084, 527, 0.965, 6.93397e-17, 2.77359e-12, 0.10789
 6096, 528, 0.965, 7.48712e-17, 2.99485e-12, 0.10789
 6108, 529, 0.965, 8.08284e-17, 3.23313e-12, 0.10789
 6120, 530, 0.965, 8.72429e-17, 3.48972e-12, 0.10789
 6132, 531, 0.965, 9.41486e-17, 3.76595e-12, 0.10789
 6144, 532, 0.965, 1.01582e-16, 4.06327e-12, 0.10789
 6156, 533, 0.965, 1.09581e-16, 4.38324e-12, 0.10789
 6168, 534, 0.965, 1.18188e-16, 4.72753e-12, 0.10789
 6180, 535, 0.965, 1.27447e-16, 5.0979e-12, 0.10789
 6192, 536, 0.965, 1.37406e-16, 5.49626e-12, 0.10789
 6204, 537, 0.965, 1.48116e-16, 5.92465e-12, 0.10789
 6216, 538, 0.965, 1.59631e-16, 6.38524e-12, 0.10789
 6228, 539, 0.965, 1.72009e-16, 6.88038e-12, 0.10789
 6240, 540, 0.965, 1.85314e-16, 7.41255e-12, 0.10789
 6252, 541, 0.965, 1.9961e-16, 7.98442e-12, 0.10789
 6264, 542, 0.965, 2.14971e-16, 8.59884e-12, 0.10789
 6276, 543, 0.965, 2.31471e-16, 9.25886e-12, 0.10789
 6288, 544, 0.965, 2.49193e-16, 9.96773e-12, 0.10789
 6300, 545, 0.965, 2.68224e-16, 1.07289e-11, 0.10789
 6312, 546, 0.965, 2.88655e-16, 1.15462e-11, 0.10789
 6324, 547, 0.965, 3.10588e-16, 1.24235e-11, 0.10789
 6336, 548, 0.965, 3.34127e-16, 1.33651e-11, 0.10789
 6348, 549, 0.965, 3.59387e-16, 1.43755e-11, 0.10789
 6360, 550, 0.965, 3.86488e-16, 1.54595e-11, 0.10789
 6372, 551, 0.965, 4.15559e-16, 1.66223e-11, 0.10789
 6384, 552, 0.965, 4.46738e-16, 1.78695e-11, 0.10789
 6396, 553, 0.965, 4.80172e-16, 1.92069e-11, 0.10789
 6408, 554, 0.965, 5.16019e-16, 2.06408e-11, 0.10789
 6420, 555, 0.965, 5.54445e-16, 2.21778e-11, 0.10789
 6432, 556, 0.965, 5.9563e-16, 2.38252e-11, 0.10789
 6444, 557, 0.965, 6.39763e-16, 2.55905e-11, 0.10789
 6456, 558, 0.965, 6.87048e-16, 2.74819e-11, 0.10789
 6468, 559, 0.965, 7.37702e-16, 2.95081e-11, 0.10789
 6480, 560, 0.965, 7.91955e-16, 3.16782e-11, 0.10789
 6492, 561, 0.965, 8.50053e-16, 3.40021e-11, 0.10789
 6504, 562, 0.965, 9.12259e-16, 3.64904e-11, 0.10789
 6516, 563, 0.965, 9.78851e-16, 3.91541e-11, 0.10789
 6528, 564, 0.965, 1.05013e-15, 4.20051e-11, 0.10789
 6540, 565, 0.965, 1.12641e-15, 4.50562e-11, 0.10789
 6552, 566, 0.965, 1.20802e-15, 4.83209e-11, 0.10789
 6564, 567, 0.965, 1.29534e-15, 5.18135e-11, 0.10789
 6576, 568, 0.965, 1.38873e-15, 5.55493e-11, 0.10789
 6588, 569, 0.965, 1.48862e-15, 5.95446e-11, 0.10789
 6600, 570, 0.965, 1.59542e-15, 6.38168e-11, 0.10789
 6612, 571, 0.965, 1.70961e-15, 6.83842e-11, 0.10789
 6624, 572, 0.965, 1.83166e-15, 7.32666e-11, 0.10789
 6636, 573, 0.965, 1.96212e-15, 7.84847e-11, 0.10789
 6648, 574, 0.965, 2.10152e-15, 8.40609e-11, 0.10789
 6660, 575, 0.965, 2.25046e-15, 9.00186e-11, 0.10789
 6672, 576, 0.965, 2.40958e-15, 9.6383e-11, 0.10789
 6684, 577, 0.965, 2.57952e-15, 1.03181e-10, 0.10789
 6696, 578, 0.965, 2.76101e-15, 1.1044e-10, 0.10789
 6708, 579, 0.965, 2.9548e-15, 1.18192e-10, 0.10789
 6720, 580, 0.965, 3.16168e-15, 1.26467e-10, 0.10789
 6732, 581, 0.965, 3.38252e-15, 1.35301e-10, 0.10789
 6744, 582, 0.965, 3.61821e-15, 1.44728e-10, 0.10789
 6756, 583, 0.965, 3.86971e-15, 1.54788e-10, 0.10789
 6768, 584, 0.965, 4.13805e-15, 1.65522e-10, 0.10789
 6780, 585, 0.965, 4.4243e-15, 1.76972e-10, 0.10789
 6792, 586, 0.965, 4.72961e-15, 1.89185e-10, 0.10789
 6804, 587, 0.965, 5.05521e-15, 2.02209e-10, 0.10789
 6816, 588, 0.965, 5.4024e-15, 2.16096e-10, 0.10789
 6828, 589, 0.965, 5.77253e-15, 2.30901e-10, 0.10789
 6840, 590, 0.965, 6.16708e-15, 2.46683e-10, 0.10789
 6852, 591, 0.965, 6.58758e-15, 2.63503e-10, 0.10789
 6864, 592, 0.965, 7.03569e-15, 2.81428e-10, 0.10789
 6876, 593, 0.965, 7.51314e-15, 3.00525e-10, 0.10789
 6888, 594, 0.965, 8.02177e-15, 3.20871e-10, 0.10789
 6900, 595, 0.965, 8.56354e-15, 3.42542e-10, 0.10789
 6912, 596, 0.965, 9.14052e-15, 3.65621e-10, 0.10789
 6924, 597, 0.965, 9.75493e-15, 3.90197e-10, 0.10789
 6936, 598, 0.965, 1.04091e-14, 4.16363e-10, 0.10789
 6948, 599, 0.965, 1.11054e-14, 4.44217e-10, 0.10789
 6960, 600, 0.965, 1.18466e-14, 4.73864e-10, 0.10789
 6972, 601, 0.965, 1.26354e-14, 5.05416e-10, 0.10789
 6984, 602, 0.965, 1.34747e-14, 5.38989e-10, 0.10789
 6996, 603, 0.965, 1.43677e-14, 5.74707e-10, 0.10789
 7008, 604, 0.965, 1.53176e-14, 6.12703e-10, 0.10789
 7020, 605, 0.965, 1.63279e-14, 6.53116e-10, 0.10789
 7032, 606, 0.965, 1.74023e-14, 6.96093e-10, 0.10789
 7044, 607, 0.965, 1.85448e-14, 7.4179e-10, 0.10789
 7056, 608, 0.965, 1.97593e-14, 7.90374e-10, 0.10789
 7068, 609, 0.965, 2.10505e-14, 8.42018e-10, 0.10789
 7080, 610, 0.965, 2.24227e-14, 8.96909e-10, 0.10789
 7092, 611, 0.965, 2.3881e-14, 9.55241e-10, 0.10789
 7104, 612, 0.965, 2.54305e-14, 1.01722e-09, 0.10789
 7116, 613, 0.965, 2.70768e-14, 1.08307e-09, 0.10789
 7128, 614, 0.965, 2.88255e-14, 1.15302e-09, 0.10789
 7140, 615, 0.965, 3.06828e-14, 1.22731e-09, 0.10789
 7152, 616, 0.965, 3.26552e-14, 1.30621e-09, 0.10789
 7164, 617, 0.965, 3.47496e-14, 1.38998e-09, 0.10789
 7176, 618, 0.965, 3.69731e-14, 1.47892e-09, 0.10789
 7188, 619, 0.965, 3.93334e-14, 1.57334e-09, 0.10789
 7200, 620, 0.965, 4.18386e-14, 1.67355e-09, 0.10789
 7212, 621, 0.965, 4.44972e-14, 1.77989e-09, 0.10789
 7224, 622, 0.965, 4.73183e-14, 1.89273e-09, 0.10789
 7236, 623, 0.965, 5.03113e-14, 2.01245e-09, 0.10789
 7248, 624, 0.965, 5.34863e-14, 2.13945e-09, 0.10789
 7260, 625, 0.965, 5.68539e-14, 2.27415e-09, 0.10789
 7272, 626, 0.965, 6.04253e-14, 2.41701e-09, 0.10789
 7284, 627, 0.965, 6.42124e-14, 2.5685e-09, 0.10789
 7296, 628, 0.965, 6.82276e-14, 2.7291e-09, 0.10789
 7308, 629, 0.965, 7.24842e-14, 2.89937e-09, 0.10789
 7320, 630, 0.965, 7.6996e-14, 3.07984e-09, 0.10789
 7332, 631, 0.965, 8.17777e-14, 3.27111e-09, 0.10789
 7344, 632, 0.965, 8.68448e-14, 3.47379e-09, 0.10789
 7356, 633, 0.965, 9.22136e-14, 3.68854e-09, 0.10789
 7368, 634, 0.965, 9.79014e-14, 3.91606e-09, 0.10789
 7380, 635, 0.965, 1.03926e-13, 4.15705e-09, 0.10789
 7392, 636, 0.965, 1.10308e-13, 4.4123e-09, 0.10789
 7404, 637, 0.965, 1.17065e-13, 4.68261e-09, 0.10789
 7416, 638, 0.965, 1.24221e-13, 4.96883e-09, 0.10789
 7428, 639, 0.965, 1.31796e-13, 5.27186e-09, 0.10789
 7440, 640, 0.965, 1.39816e-13, 5.59264e-09, 0.10789
 7452, 641, 0.965, 1.48304e-13, 5.93217e-09, 0.10789
 7464, 642, 0.965, 1.57288e-13, 6.29151e-09, 0.10789
 7476, 643, 0.965, 1.66794e-13, 6.67176e-09, 0.10789
 7488, 644, 0.965, 1.76852e-13, 7.07408e-09, 0.10789
 7500, 645, 0.965, 1.87493e-13, 7.49971e-09, 0.10789
 7512, 646, 0.965, 1.98749e-13, 7.94994e-09, 0.10789
 7524, 647, 0.965, 2.10653e-13, 8.42613e-09, 0.10789
 7536, 648, 0.965, 2.23243e-13, 8.92971e-09, 0.10789
 7548, 649, 0.965, 2.36555e-13, 9.4622e-09, 0.10789
 7560, 650, 0.965, 2.5063e-13, 1.00252e-08, 0.10789
 7572, 651, 0.965, 2.65508e-13, 1.06203e-08, 0.10789
 7584, 652, 0.965, 2.81235e-13, 1.12494e-08, 0.10789
 7596, 653, 0.965, 2.97857e-13, 1.19143e-08, 0.10789
 7608, 654, 0.965, 3.15422e-13, 1.26169e-08, 0.10789
 7620, 655, 0.965, 3.33981e-13, 1.33592e-08, 0.10789
 7632, 656, 0.965, 3.53589e-13, 1.41436e-08, 0.10789
 7644, 657, 0.965, 3.74302e-13, 1.49721e-08, 0.10789
 7656, 658, 0.965, 3.9618e-13, 1.58472e-08, 0.10789
 7668, 659, 0.965, 4.19286e-13, 1.67714e-08, 0.10789
 7680, 660, 0.965, 4.43685e-13, 1.77474e-08, 0.10789
 7692, 661, 0.965, 4.69448e-13, 1.87779e-08, 0.10789
 7704, 662, 0.965, 4.96646e-13, 1.98659e-08, 0.10789
 7716, 663, 0.965, 5.25357e-13, 2.10143e-08, 0.10789
 7728, 664, 0.965, 5.55661e-13, 2.22265e-08, 0.10789
 7740, 665, 0.965, 5.87643e-13, 2.35057e-08, 0.10789
 7752, 666, 0.965, 6.21392e-13, 2.48557e-08, 0.10789
 7764, 667, 0.965, 6.57e-13, 2.628e-08, 0.10789
 7776, 668, 0.965, 6.94567e-13, 2.77827e-08, 0.10789
 7788, 669, 0.965, 7.34196e-13, 2.93678e-08, 0.10789
 7800, 670, 0.965, 7.75994e-13, 3.10398e-08, 0.10789
 7812, 671, 0.965, 8.20075e-13, 3.2803e-08, 0.10789
 7824, 672, 0.965, 8.66559e-13, 3.46624e-08, 0.10789
 7836, 673, 0.965, 9.15572e-13, 3.66229e-08, 0.10789
 7848, 674, 0.965, 9.67244e-13, 3.86898e-08, 0.10789
 7860, 675, 0.965, 1.02171e-12, 4.08686e-08, 0.10789
 7872, 676, 0.965, 1.07913e-12, 4.31651e-08, 0.10789
 7884, 677, 0.965, 1.13963e-12, 4.55854e-08, 0.10789
 7896, 678, 0.965, 1.2034e-12, 4.81359e-08, 0.10789
 7908, 679, 0.965, 1.27058e-12, 5.08233e-08, 0.10789
 7920, 680, 0.965, 1.34136e-12, 5.36546e-08, 0.10789
 7932, 681, 0.965, 1.41593e-12, 5.66372e-08, 0.10789
 7944, 682, 0.965, 1.49447e-12, 5.97788e-08, 0.10789
 7956, 683, 0.965, 1.57719e-12, 6.30876e-08, 0.10789
 7968, 684, 0.965, 1.6643e-12, 6.6572e-08, 0.10789
 7980, 685, 0.965, 1.75603e-12, 7.0241e-08, 0.10789
 7992, 686, 0.965, 1.8526e-12, 7.41039e-08, 0.10789
 8004, 687, 0.965, 1.95426e-12, 7.81706e-08, 0.10789
 8016, 688, 0.965, 2.06128e-12, 8.24512e-08, 0.10789
 8028, 689, 0.965, 2.17391e-12, 8.69566e-08, 0.10789
 8040, 690, 0.965, 2.29245e-12, 9.1698e-08, 0.10789
 8052, 691, 0.965, 2.41718e-12, 9.66874e-08, 0.10789
 8064, 692, 0.965, 2.54842e-12, 1.01937e-07, 0.10789
 8076, 693, 0.965, 2.6865e-12, 1.0746e-07, 0.10789
 8088, 694, 0.965, 2.83174e-12, 1.1327e-07, 0.10789
 8100, 695, 0.965, 2.98451e-12, 1.19381e-07, 0.10789
 8112, 696, 0.965, 3.14519e-12, 1.25807e-07, 0.10789
 8124, 697, 0.965, 3.31415e-12, 1.32566e-07, 0.10789
 8136, 698, 0.965, 3.49182e-12, 1.39673e-07, 0.10789
 8148, 699, 0.965, 3.67861e-12, 1.47144e-07, 0.10789
 8160, 700, 0.965, 3.87498e-12, 1.54999e-07, 0.10789
 8172, 701, 0.965, 4.0814e-12, 1.63256e-07, 0.10789
 8184, 702, 0.965, 4.29836e-12, 1.71934e-07, 0.10789
 8196, 703, 0.965, 4.52637e-12, 1.81055e-07, 0.10789
 8208, 704, 0.965, 4.76597e-12, 1.90639e-07, 0.10789
 8220, 705, 0.965, 5.01772e-12, 2.00709e-07, 0.10789
 8232, 706, 0.965, 5.28222e-12, 2.11289e-07, 0.10789
 8244, 707, 0.965, 5.56007e-12, 2.22403e-07, 0.10789
 8256, 708, 0.965, 5.85193e-12, 2.34077e-07, 0.10789
 8268, 709, 0.965, 6.15847e-12, 2.46339e-07, 0.10789
 8280, 710, 0.965, 6.4804e-12, 2.59216e-07, 0.10789
 8292, 711, 0.965, 6.81844e-12, 2.72738e-07, 0.10789
 8304, 712, 0.965, 7.17338e-12, 2.86935e-07, 0.10789
 8316, 713, 0.965, 7.54602e-12, 3.01841e-07, 0.10789
 8328, 714, 0.965, 7.9372e-12, 3.17488e-07, 0.10789
 8340, 715, 0.965, 8.34781e-12, 3.33912e-07, 0.10789
 8352, 716, 0.965, 8.77876e-12, 3.51151e-07, 0.10789
 8364, 717, 0.965, 9.23102e-12, 3.69241e-07, 0.10789
 8376, 718, 0.965, 9.7056e-12, 3.88224e-07, 0.10789
 8388, 719, 0.965, 1.02035e-11, 4.08142e-07, 0.10789
 8400, 720, 0.965, 1.0726e-11, 4.29038e-07, 0.10789
 8412, 721, 0.965, 1.1274e-11, 4.50959e-07, 0.10789
 8424, 722, 0.965, 1.18488e-11, 4.73953e-07, 0.10789
 8436, 723, 0.965, 1.24517e-11, 4.98069e-07, 0.10789
 8448, 724, 0.965, 1.3084e-11, 5.23361e-07, 0.10789
 8460, 725, 0.965, 1.3747e-11, 5.49882e-07, 0.10789
 8472, 726, 0.965, 1.44422e-11, 5.77689e-07, 0.10789
 8484, 727, 0.965, 1.51711e-11, 6.06843e-07, 0.10789
 8496, 728, 0.965, 1.59352e-11, 6.37406e-07, 0.10789
 8508, 729, 0.965, 1.67361e-11, 6.69442e-07, 0.10789
 8520, 730, 0.965, 1.75755e-11, 7.0302e-07, 0.10789
 8532, 731, 0.965, 1.84553e-11, 7.3821e-07, 0.10789
 8544, 732, 0.965, 1.93772e-11, 7.75086e-07, 0.10789
 8556, 733, 0.965, 2.03431e-11, 8.13726e-07, 0.10789
 8568, 734, 0.965, 2.13552e-11, 8.54209e-07, 0.10789
 8580, 735, 0.965, 2.24155e-11, 8.96619e-07, 0.10789
 8592, 736, 0.965, 2.35261e-11, 9.41045e-07, 0.10789
 8604, 737, 0.965, 2.46894e-11, 9.87578e-07, 0.10789
 8616, 738, 0.965, 2.59078e-11, 1.03631e-06, 0.10789
 8628, 739, 0.965, 2.71837e-11, 1.08735e-06, 0.10789
 8640, 740, 0.965, 2.85197e-11, 1.14079e-06, 0.10789
 8652, 741, 0.965, 2.99186e-11, 1.19674e-06, 0.10789
 8664, 742, 0.965, 3.13831e-11, 1.25533e-06, 0.10789
 8676, 743, 0.965, 3.29162e-11, 1.31665e-06, 0.10789
 8688, 744, 0.965, 3.4521e-11, 1.38084e-06, 0.107891
 8700, 745, 0.965, 3.62006e-11, 1.44802e-06, 0.10789
 8712, 746, 0.965, 3.79584e-11, 1.51834e-06, 0.10789
 8724, 747, 0.965, 3.97979e-11, 1.59191e-06, 0.10789
 8736, 748, 0.965, 4.17226e-11, 1.6689e-06, 0.10789
 8748, 749, 0.965, 4.37364e-11, 1.74945e-06, 0.10789
 8760, 750, 0.965, 4.58431e-11, 1.83372e-06, 0.10789
 8772, 751, 0.965, 4.80469e-11, 1.92188e-06, 0.10789
 8784, 752, 0.965, 5.0352e-11, 2.01408e-06, 0.10789
 8796, 753, 0.965, 5.27629e-11, 2.11052e-06, 0.10789
 8808, 754, 0.965, 5.52842e-11, 2.21137e-06, 0.10789
 8820, 755, 0.965, 5.79208e-11, 2.31683e-06, 0.10789
 8832, 756, 0.965, 6.06775e-11, 2.4271e-06, 0.10789
 8844, 757, 0.965, 6.35598e-11, 2.54239e-06, 0.10789
 8856, 758, 0.965, 6.6573e-11, 2.66292e-06, 0.10789
 8868, 759, 0.965, 6.97227e-11, 2.78891e-06, 0.10789
 8880, 760, 0.965, 7.3015e-11, 2.9206e-06, 0.10789
 8892, 761, 0.965, 7.64558e-11, 3.05823e-06, 0.10789
 8904, 762, 0.965, 8.00517e-11, 3.20207e-06, 0.10789
 8916, 763, 0.965, 8.38093e-11, 3.35237e-06, 0.10789
 8928, 764, 0.965, 8.77355e-11, 3.50942e-06, 0.10789
 8940, 765, 0.965, 9.18376e-11, 3.6735e-06, 0.10789
 8952, 766, 0.965, 9.6123e-11, 3.84492e-06, 0.10789
 8964, 767, 0.965, 1.00599e-10, 4.02398e-06, 0.10789
 8976, 768, 0.965, 1.05275e-10, 4.21101e-06, 0.10789
 8988, 769, 0.965, 1.10159e-10, 4.40635e-06, 0.10789
 9000, 770, 0.965, 1.15259e-10, 4.61035e-06, 0.10789
 9012, 771, 0.965, 1.20585e-10, 4.82338e-06, 0.10789
 9024, 772, 0.965, 1.26145e-10, 5.04582e-06, 0.10789
 9036, 773, 0.965, 1.31951e-10, 5.27805e-06, 0.10789
 9048, 774, 0.965, 1.38013e-10, 5.52051e-06, 0.10789
 9060, 775, 0.965, 1.4434e-10, 5.7736e-06, 0.10789
 9072, 776, 0.965, 1.50945e-10, 6.03778e-06, 0.10789
 9084, 777, 0.965, 1.57838e-10, 6.31352e-06, 0.10789
 9096, 778, 0.965, 1.65032e-10, 6.60128e-06, 0.10789
 9108, 779, 0.965, 1.72539e-10, 6.90157e-06, 0.10789
 9120, 780, 0.965, 1.80373e-10, 7.21492e-06, 0.10789
 9132, 781, 0.965, 1.88546e-10, 7.54186e-06, 0.10789
 9144, 782, 0.965, 1.97074e-10, 7.88295e-06, 0.10789
 9156, 783, 0.965, 2.05969e-10, 8.23877e-06, 0.10789
 9168, 784, 0.965, 2.15248e-10, 8.60994e-06, 0.10789
 9180, 785, 0.965, 2.24927e-10, 8.99708e-06, 0.10789
 9192, 786, 0.965, 2.35021e-10, 9.40085e-06, 0.10789
 9204, 787, 0.965, 2.45548e-10, 9.82192e-06, 0.10789
 9216, 788, 0.965, 2.56525e-10, 1.0261e-05, 0.107891
 9228, 789, 0.965, 2.67971e-10, 1.07188e-05, 0.107891
 9240, 790, 0.965, 2.79905e-10, 1.11962e-05, 0.10789
 9252, 791, 0.965, 2.92346e-10, 1.16938e-05, 0.107891
 9264, 792, 0.965, 3.05315e-10, 1.22126e-05, 0.10789
 9276, 793, 0.965, 3.18833e-10, 1.27533e-05, 0.10789
 9288, 794, 0.965, 3.32923e-10, 1.33169e-05, 0.10789
 9300, 795, 0.965, 3.47607e-10, 1.39043e-05, 0.10789
 9312, 796, 0.965, 3.6291e-10, 1.45164e-05, 0.107891
 9324, 797, 0.965, 3.78856e-10, 1.51543e-05, 0.10789
 9336, 798, 0.965, 3.95471e-10, 1.58189e-05, 0.10789
 9348, 799, 0.965, 4.12782e-10, 1.65113e-05, 0.10789
 9360, 800, 0.965, 4.30816e-10, 1.72326e-05, 0.10789