File: examples/Birch_TGA_Example/Work/Cone_x4pclkgu/birch_tga_1step_2_tga.csv
s,C,g/g,1/s,W/g,W/g
Time,Temp,Mass,MLR,MCC,DSC
 30, 21.0001, 0.999987, 4.80453e-07, 0.0000000E+000, 0.0484218
 60, 22.0001, 0.999971, 5.51532e-07, 0.0000000E+000, 0.0485805
 90, 23.0001, 0.999953, 6.32482e-07, 0.0000000E+000, 0.0487612
 120, 24.0001, 0.999933, 7.24574e-07, 0.0000000E+000, 0.0489667
 150, 25.0001, 0.99991, 8.29223e-07, 0.0000000E+000, 0.0492002
 180, 26.0001, 0.999883, 9.4801e-07, 0.0000000E+000, 0.0494653
 210, 27.0001, 0.999853, 1.08269e-06, 0.0000000E+000, 0.0497658
 240, 28.0001, 0.999818, 1.2352e-06, 0.0000000E+000, 0.0501061
 270, 29.0001, 0.999778, 1.40771e-06, 0.0000000E+000, 0.0504909
 300, 30.0001, 0.999733, 1.60258e-06, 0.0000000E+000, 0.0509255
 330, 31.0001, 0.999682, 1.82243e-06, 0.0000000E+000, 0.0514158
 360, 32.0001, 0.999624, 2.07013e-06, 0.0000000E+000, 0.0519682
 390, 33.0001, 0.999557, 2.34882e-06, 0.0000000E+000, 0.0525895
 420, 34.0001, 0.999482, 2.66189e-06, 0.0000000E+000, 0.0532874
 450, 35.0001, 0.999397, 3.01305e-06, 0.0000000E+000, 0.0540701
 480, 36.0001, 0.999301, 3.40628e-06, 0.0000000E+000, 0.0549465
 510, 37.0001, 0.999193, 3.84585e-06, 0.0000000E+000, 0.0559259
 540, 38.0001, 0.99907, 4.3363e-06, 0.0000000E+000, 0.0570186
 570, 39.0001, 0.998932, 4.88242e-06, 0.0000000E+000, 0.058235
 600, 40.0001, 0.998776, 5.48922e-06, 0.0000000E+000, 0.0595863
 630, 41.0001, 0.998602, 6.16185e-06, 0.0000000E+000, 0.0610839
 660, 42.0001, 0.998406, 6.90557e-06, 0.0000000E+000, 0.0627394
 690, 43.0001, 0.998187, 7.72561e-06, 0.0000000E+000, 0.0645643
 720, 44.0001, 0.997942, 8.62708e-06, 0.0000000E+000, 0.0665699
 750, 45.0001, 0.997668, 9.61477e-06, 0.0000000E+000, 0.0687666
 780, 46.0001, 0.997364, 1.06929e-05, 0.0000000E+000, 0.0711637
 810, 47.0001, 0.997026, 1.18651e-05, 0.0000000E+000, 0.0737688
 840, 48.0001, 0.996651, 1.31337e-05, 0.0000000E+000, 0.076587
 870, 49.0001, 0.996237, 1.44998e-05, 0.0000000E+000, 0.0796201
 900, 50.0001, 0.99578, 1.59624e-05, 0.0000000E+000, 0.0828659
 930, 51.0001, 0.995278, 1.75185e-05, 0.0000000E+000, 0.0863168
 960, 52.0001, 0.994728, 1.9162e-05, 0.0000000E+000, 0.0899588
 990, 53.0001, 0.994127, 2.08834e-05, 0.0000000E+000, 0.09377
 1020, 54.0001, 0.993474, 2.26693e-05, 0.0000000E+000, 0.0977197
 1050, 55.0001, 0.992767, 2.45015e-05, 0.0000000E+000, 0.101767
 1080, 56.0001, 0.992004, 2.63566e-05, 0.0000000E+000, 0.105858
 1110, 57.0001, 0.991185, 2.82058e-05, 0.0000000E+000, 0.109927
 1140, 58.0001, 0.990312, 3.0014e-05, 0.0000000E+000, 0.113897
 1170, 59.0001, 0.989385, 3.17404e-05, 0.0000000E+000, 0.117674
 1200, 60.0001, 0.988409, 3.33383e-05, 0.0000000E+000, 0.121153
 1230, 61.0001, 0.987387, 3.47561e-05, 0.0000000E+000, 0.124218
 1260, 62.0001, 0.986326, 3.59385e-05, 0.0000000E+000, 0.126745
 1290, 63.0001, 0.985233, 3.68283e-05, 0.0000000E+000, 0.128606
 1320, 64.0001, 0.98412, 3.73693e-05, 0.0000000E+000, 0.129674
 1350, 65.0001, 0.982995, 3.75093e-05, 0.0000000E+000, 0.129834
 1380, 66.0001, 0.981873, 3.72041e-05, 0.0000000E+000, 0.128986
 1410, 67.0001, 0.980768, 3.6422e-05, 0.0000000E+000, 0.127062
 1440, 68.0001, 0.979693, 3.5148e-05, 0.0000000E+000, 0.124029
 1470, 69.0001, 0.978664, 3.3388e-05, 0.0000000E+000, 0.119902
 1500, 70.0001, 0.977694, 3.11719e-05, 0.0000000E+000, 0.114752
 1530, 71.0001, 0.976798, 2.85552e-05, 0.0000000E+000, 0.108706
 1560, 72.0001, 0.975984, 2.56186e-05, 0.0000000E+000, 0.101947
 1590, 73.0001, 0.975263, 2.24643e-05, 0.0000000E+000, 0.0947086
 1620, 74.0001, 0.974637, 1.92104e-05, 0.0000000E+000, 0.0872584
 1650, 75.0001, 0.97411, 1.59822e-05, 0.0000000E+000, 0.07988
 1680, 76.0001, 0.973677, 1.29016e-05, 0.0000000E+000, 0.0728489
 1710, 77.0001, 0.973333, 1.00765e-05, 0.0000000E+000, 0.0664084
 1740, 78.0001, 0.973069, 7.59038e-06, 0.0000000E+000, 0.060746
 1770, 79.0001, 0.972874, 5.49563e-06, 0.0000000E+000, 0.0559788
 1800, 80.0001, 0.972735, 3.81018e-06, 0.0000000E+000, 0.0521458
 1830, 81.0001, 0.972641, 2.51929e-06, 0.0000000E+000, 0.0492118
 1860, 82.0001, 0.972581, 1.58158e-06, 0.0000000E+000, 0.0470816
 1890, 83.0001, 0.972543, 9.38173e-07, 0.0000000E+000, 0.0456206
 1920, 84.0001, 0.972522, 5.2309e-07, 0.0000000E+000, 0.0446784
 1950, 85.0001, 0.97251, 2.72579e-07, 0.0000000E+000, 0.04411
 1980, 86.0001, 0.972505, 1.31928e-07, 0.0000000E+000, 0.0437909
 2010, 87.0001, 0.972502, 5.89092e-08, 0.0000000E+000, 0.0436254
 2040, 88.0001, 0.972501, 2.40911e-08, 0.0000000E+000, 0.0435464
 2070, 89.0001, 0.9725, 8.95183e-09, 0.0000000E+000, 0.0435121
 2100, 90.0001, 0.9725, 2.99648e-09, 0.0000000E+000, 0.0434986
 2130, 91.0001, 0.9725, 8.95175e-10, 0.0000000E+000, 0.0434938
 2160, 92.0001, 0.9725, 2.36271e-10, 0.0000000E+000, 0.0434924
 2190, 93.0001, 0.9725, 5.44967e-11, 0.0000000E+000, 0.0434919
 2220, 94.0001, 0.9725, 1.08553e-11, 0.0000000E+000, 0.0434918
 2250, 95.0001, 0.9725, 1.84359e-12, 0.0000000E+000, 0.0434918
 2280, 96.0001, 0.9725, 2.63279e-13, 0.0000000E+000, 0.0434918
 2310, 97.0001, 0.9725, 3.11454e-14, 0.0000000E+000, 0.0434918
 2340, 98.0001, 0.9725, 3.00311e-15, 0.0000000E+000, 0.0434918
 2370, 99.0001, 0.9725, 2.31931e-16, 0.0000000E+000, 0.0434918
 2400, 100, 0.9725, 1.40786e-17, 0.0000000E+000, 0.0434918
 2430, 101, 0.9725, 6.58164e-19, 0.0000000E+000, 0.0434918
 2460, 102, 0.9725, 2.31818e-20, 0.0000000E+000, 0.0434918
 2490, 103, 0.9725, 6.00778e-22, 0.0000000E+000, 0.0434918
 2520, 104, 0.9725, 1.11675e-23, 0.0000000E+000, 0.0434918
 2550, 105, 0.9725, 1.44856e-25, 0.0000000E+000, 0.0434918
 2580, 106, 0.9725, 1.27292e-27, 0.0000000E+000, 0.0434918
 2610, 107, 0.9725, 7.34029e-30, 0.0000000E+000, 0.0434918
 2640, 108, 0.9725, 2.68402e-32, 0.0000000E+000, 0.0434918
 2670, 109, 0.9725, 5.99802e-35, 0.0000000E+000, 0.0434918
 2700, 110, 0.9725, 7.87341e-38, 0.0000000E+000, 0.0434918
 2730, 111, 0.9725, 0.0000000E+000, 0.0000000E+000, 0.0434918
 2760, 112, 0.9725, 0.0000000E+000, 0.0000000E+000, 0.0434918
 2790, 113, 0.9725, 0.0000000E+000, 0.0000000E+000, 0.0434918
 2820, 114, 0.9725, 0.0000000E+000, 0.0000000E+000, 0.0434918
 2850, 115, 0.9725, 0.0000000E+000, 0.0000000E+000, 0.0434918
 2880, 116, 0.9725, 0.0000000E+000, 0.0000000E+000, 0.0434918
 2910, 117, 0.9725, 0.0000000E+000, 0.0000000E+000, 0.0434918
 2940, 118, 0.9725, 0.0000000E+000, 0.0000000E+000, 0.0434918
 2970, 119, 0.9725, 0.0000000E+000, 0.0000000E+000, 0.0434918
 3000, 120, 0.9725, 0.0000000E+000, 0.0000000E+000, 0.0434918
 3030, 121, 0.9725, 0.0000000E+000, 0.0000000E+000, 0.0434918
 3060, 122, 0.9725, 0.0000000E+000, 0.0000000E+000, 0.0434918
 3090, 123, 0.9725, 0.0000000E+000, 0.0000000E+000, 0.0434918
 3120, 124, 0.9725, 0.0000000E+000, 0.0000000E+000, 0.0434918
 3150, 125, 0.9725, 0.0000000E+000, 0.0000000E+000, 0.0434918
 3180, 126, 0.9725, 0.0000000E+000, 0.0000000E+000, 0.0434918
 3210, 127, 0.9725, 0.0000000E+000, 0.0000000E+000, 0.0434918
 3240, 128, 0.9725, 0.0000000E+000, 0.0000000E+000, 0.0434918
 3270, 129, 0.9725, 0.0000000E+000, 0.0000000E+000, 0.0434918
 3300, 130, 0.9725, 0.0000000E+000, 1.36978e-38, 0.0434918
 3330, 131, 0.9725, 0.0000000E+000, 1.85265e-38, 0.0434918
 3360, 132, 0.9725, 0.0000000E+000, 2.502e-38, 0.0434918
 3390, 133, 0.9725, 0.0000000E+000, 3.37395e-38, 0.0434918
 3420, 134, 0.9725, 0.0000000E+000, 4.5431e-38, 0.0434918
 3450, 135, 0.9725, 0.0000000E+000, 6.10848e-38, 0.0434918
 3480, 136, 0.9725, 0.0000000E+000, 8.20136e-38, 0.0434918
 3510, 137, 0.9725, 0.0000000E+000, 1.09955e-37, 0.0434918
 3540, 138, 0.9725, 0.0000000E+000, 1.47205e-37, 0.0434918
 3570, 139, 0.9725, 0.0000000E+000, 1.96797e-37, 0.0434918
 3600, 140, 0.9725, 0.0000000E+000, 2.62725e-37, 0.0434918
 3630, 141, 0.9725, 0.0000000E+000, 3.50251e-37, 0.0434918
 3660, 142, 0.9725, 0.0000000E+000, 4.66289e-37, 0.0434918
 3690, 143, 0.9725, 0.0000000E+000, 6.19918e-37, 0.0434918
 3720, 144, 0.9725, 0.0000000E+000, 8.23038e-37, 0.0434918
 3750, 145, 0.9725, 0.0000000E+000, 1.09123e-36, 0.0434918
 3780, 146, 0.9725, 0.0000000E+000, 1.44487e-36, 0.0434918
 3810, 147, 0.9725, 0.0000000E+000, 1.91057e-36, 0.0434918
 3840, 148, 0.9725, 0.0000000E+000, 2.52301e-36, 0.0434918
 3870, 149, 0.9725, 0.0000000E+000, 3.32738e-36, 0.0434918
 3900, 150, 0.9725, 0.0000000E+000, 4.38247e-36, 0.0434918
 3930, 151, 0.9725, 0.0000000E+000, 5.76462e-36, 0.0434918
 3960, 152, 0.9725, 0.0000000E+000, 7.5729e-36, 0.0434918
 3990, 153, 0.9725, 0.0000000E+000, 9.9357e-36, 0.0434918
 4020, 154, 0.9725, 0.0000000E+000, 1.30191e-35, 0.0434918
 4050, 155, 0.9725, 0.0000000E+000, 1.70379e-35, 0.0434918
 4080, 156, 0.9725, 0.0000000E+000, 2.22694e-35, 0.0434918
 4110, 157, 0.9725, 0.0000000E+000, 2.90709e-35, 0.0434918
 4140, 158, 0.9725, 0.0000000E+000, 3.79028e-35, 0.0434918
 4170, 159, 0.9725, 0.0000000E+000, 4.93573e-35, 0.0434918
 4200, 160, 0.9725, 0.0000000E+000, 6.41951e-35, 0.0434918
 4230, 161, 0.9725, 0.0000000E+000, 8.33924e-35, 0.0434918
 4260, 162, 0.9725, 0.0000000E+000, 1.082e-34, 0.0434918
 4290, 163, 0.9725, 0.0000000E+000, 1.40221e-34, 0.0434918
 4320, 164, 0.9725, 0.0000000E+000, 1.81502e-34, 0.0434918
 4350, 165, 0.9725, 0.0000000E+000, 2.3466e-34, 0.0434918
 4380, 166, 0.9725, 0.0000000E+000, 3.03031e-34, 0.0434918
 4410, 167, 0.9725, 0.0000000E+000, 3.9087e-34, 0.0434918
 4440, 168, 0.9725, 1.25897e-38, 5.03588e-34, 0.0434918
 4470, 169, 0.9725, 1.62017e-38, 6.48068e-34, 0.0434918
 4500, 170, 0.9725, 2.08263e-38, 8.33051e-34, 0.0434918
 4530, 171, 0.9725, 2.67406e-38, 1.06963e-33, 0.0434918
 4560, 172, 0.9725, 3.42961e-38, 1.37184e-33, 0.0434918
 4590, 173, 0.9725, 4.39372e-38, 1.75749e-33, 0.0434918
 4620, 174, 0.9725, 5.62262e-38, 2.24905e-33, 0.0434918
 4650, 175, 0.9725, 7.18732e-38, 2.87493e-33, 0.0434918
 4680, 176, 0.9725, 9.17743e-38, 3.67097e-33, 0.0434918
 4710, 177, 0.9725, 1.17059e-37, 4.68234e-33, 0.0434918
 4740, 178, 0.9725, 1.49148e-37, 5.96591e-33, 0.0434918
 4770, 179, 0.9725, 1.8983e-37, 7.59321e-33, 0.0434918
 4800, 180, 0.9725, 2.41352e-37, 9.65409e-33, 0.0434918
 4830, 181, 0.9725, 3.06534e-37, 1.22613e-32, 0.0434918
 4860, 182, 0.9725, 3.88909e-37, 1.55564e-32, 0.0434918
 4890, 183, 0.9725, 4.92908e-37, 1.97163e-32, 0.0434918
 4920, 184, 0.9725, 6.24069e-37, 2.49628e-32, 0.0434918
 4950, 185, 0.9725, 7.89319e-37, 3.15728e-32, 0.0434918
 4980, 186, 0.9725, 9.97305e-37, 3.98922e-32, 0.0434918
 5010, 187, 0.9725, 1.25881e-36, 5.03526e-32, 0.0434918
 5040, 188, 0.9725, 1.58729e-36, 6.34917e-32, 0.0434918
 5070, 189, 0.9725, 1.99948e-36, 7.99791e-32, 0.0434918
 5100, 190, 0.9725, 2.51619e-36, 1.00647e-31, 0.0434918
 5130, 191, 0.9725, 3.16329e-36, 1.26532e-31, 0.0434918
 5160, 192, 0.9725, 3.97291e-36, 1.58916e-31, 0.0434918
 5190, 193, 0.9725, 4.98486e-36, 1.99394e-31, 0.0434918
 5220, 194, 0.9725, 6.24849e-36, 2.4994e-31, 0.0434918
 5250, 195, 0.9725, 7.82489e-36, 3.12996e-31, 0.0434918
 5280, 196, 0.9725, 9.7896e-36, 3.91584e-31, 0.0434918
 5310, 197, 0.9725, 1.2236e-35, 4.89438e-31, 0.0434918
 5340, 198, 0.9725, 1.52792e-35, 6.11167e-31, 0.0434918
 5370, 199, 0.9725, 1.90613e-35, 7.62452e-31, 0.0434918
 5400, 200, 0.9725, 2.37574e-35, 9.50298e-31, 0.0434918
 5430, 201, 0.9725, 2.95831e-35, 1.18332e-30, 0.0434918
 5460, 202, 0.9725, 3.68032e-35, 1.47213e-30, 0.0434918
 5490, 203, 0.9725, 4.57436e-35, 1.82974e-30, 0.0434918
 5520, 204, 0.9725, 5.6804e-35, 2.27216e-30, 0.0434918
 5550, 205, 0.9725, 7.04748e-35, 2.81899e-30, 0.0434918
 5580, 206, 0.9725, 8.73571e-35, 3.49428e-30, 0.0434918
 5610, 207, 0.9725, 1.08187e-34, 4.32747e-30, 0.0434918
 5640, 208, 0.9725, 1.33864e-34, 5.35456e-30, 0.0434918
 5670, 209, 0.9725, 1.65489e-34, 6.61957e-30, 0.0434918
 5700, 210, 0.9725, 2.04406e-34, 8.17625e-30, 0.0434918
 5730, 211, 0.9725, 2.52255e-34, 1.00902e-29, 0.0434918
 5760, 212, 0.9725, 3.11035e-34, 1.24414e-29, 0.0434918
 5790, 213, 0.9725, 3.83181e-34, 1.53273e-29, 0.0434918
 5820, 214, 0.9725, 4.71658e-34, 1.88663e-29, 0.0434918
 5850, 215, 0.9725, 5.8007e-34, 2.32028e-29, 0.0434918
 5880, 216, 0.9725, 7.12798e-34, 2.85119e-29, 0.0434918
 5910, 217, 0.9725, 8.7516e-34, 3.50064e-29, 0.0434918
 5940, 218, 0.9725, 1.07361e-33, 4.29443e-29, 0.0434918
 5970, 219, 0.9725, 1.31596e-33, 5.26384e-29, 0.0434918
 6000, 220, 0.9725, 1.61169e-33, 6.44676e-29, 0.0434918
 6030, 221, 0.9725, 1.97226e-33, 7.88904e-29, 0.0434918
 6060, 222, 0.9725, 2.41153e-33, 9.64611e-29, 0.0434918
 6090, 223, 0.9725, 2.94624e-33, 1.1785e-28, 0.0434918
 6120, 224, 0.9725, 3.59662e-33, 1.43865e-28, 0.0434918
 6150, 225, 0.9725, 4.38706e-33, 1.75482e-28, 0.0434918
 6180, 226, 0.9725, 5.34695e-33, 2.13878e-28, 0.0434918
 6210, 227, 0.9725, 6.51172e-33, 2.60469e-28, 0.0434918
 6240, 228, 0.9725, 7.92398e-33, 3.16959e-28, 0.0434918
 6270, 229, 0.9725, 9.63499e-33, 3.854e-28, 0.0434918
 6300, 230, 0.9725, 1.17064e-32, 4.68255e-28, 0.0434918
 6330, 231, 0.9725, 1.42121e-32, 5.68482e-28, 0.0434918
 6360, 232, 0.9725, 1.72409e-32, 6.89634e-28, 0.0434918
 6390, 233, 0.9725, 2.08992e-32, 8.35966e-28, 0.0434918
 6420, 234, 0.9725, 2.53145e-32, 1.01258e-27, 0.0434918
 6450, 235, 0.9725, 3.06395e-32, 1.22558e-27, 0.0434918
 6480, 236, 0.9725, 3.70569e-32, 1.48228e-27, 0.0434918
 6510, 237, 0.9725, 4.4785e-32, 1.7914e-27, 0.0434918
 6540, 238, 0.9725, 5.40847e-32, 2.16339e-27, 0.0434918
 6570, 239, 0.9725, 6.52673e-32, 2.61069e-27, 0.0434918
 6600, 240, 0.9725, 7.87045e-32, 3.14818e-27, 0.0434918
 6630, 241, 0.9725, 9.48389e-32, 3.79356e-27, 0.0434918
 6660, 242, 0.9725, 1.14198e-31, 4.56793e-27, 0.0434918
 6690, 243, 0.9725, 1.3741e-31, 5.49642e-27, 0.0434918
 6720, 244, 0.9725, 1.65222e-31, 6.6089e-27, 0.0434918
 6750, 245, 0.9725, 1.98522e-31, 7.94089e-27, 0.0434918
 6780, 246, 0.9725, 2.38365e-31, 9.5346e-27, 0.0434918
 6810, 247, 0.9725, 2.86003e-31, 1.14401e-26, 0.0434918
 6840, 248, 0.9725, 3.42921e-31, 1.37169e-26, 0.0434918
 6870, 249, 0.9725, 4.10882e-31, 1.64353e-26, 0.0434918
 6900, 250, 0.9725, 4.9197e-31, 1.96788e-26, 0.0434918
 6930, 251, 0.9725, 5.88657e-31, 2.35463e-26, 0.0434918
 6960, 252, 0.9725, 7.03864e-31, 2.81546e-26, 0.0434918
 6990, 253, 0.9725, 8.41048e-31, 3.36419e-26, 0.0434918
 7020, 254, 0.9725, 1.00429e-30, 4.01716e-26, 0.0434918
 7050, 255, 0.9725, 1.19841e-30, 4.79364e-26, 0.0434918
 7080, 256, 0.9725, 1.4291e-30, 5.71639e-26, 0.0434919
 7110, 257, 0.9725, 1.70306e-30, 6.81224e-26, 0.0434918
 7140, 258, 0.9725, 2.0282e-30, 8.11281e-26, 0.0434918
 7170, 259, 0.9725, 2.41383e-30, 9.65534e-26, 0.0434918
 7200, 260, 0.9725, 2.87091e-30, 1.14836e-25, 0.0434918
 7230, 261, 0.9725, 3.41232e-30, 1.36493e-25, 0.0434918
 7260, 262, 0.9725, 4.05322e-30, 1.62129e-25, 0.0434918
 7290, 263, 0.9725, 4.8114e-30, 1.92456e-25, 0.0434918
 7320, 264, 0.9725, 5.70776e-30, 2.2831e-25, 0.0434918
 7350, 265, 0.9725, 6.76681e-30, 2.70672e-25, 0.0434918
 7380, 266, 0.9725, 8.01729e-30, 3.20692e-25, 0.0434918
 7410, 267, 0.9725, 9.49291e-30, 3.79716e-25, 0.0434919
 7440, 268, 0.9725, 1.12331e-29, 4.49324e-25, 0.0434918
 7470, 269, 0.9725, 1.3284e-29, 5.31361e-25, 0.0434918
 7500, 270, 0.9725, 1.56997e-29, 6.27989e-25, 0.0434918
 7530, 271, 0.9725, 1.85433e-29, 7.41733e-25, 0.0434918
 7560, 272, 0.9725, 2.18886e-29, 8.75544e-25, 0.0434918
 7590, 273, 0.9725, 2.58217e-29, 1.03287e-24, 0.0434918
 7620, 274, 0.9725, 3.04431e-29, 1.21772e-24, 0.0434918
 7650, 275, 0.9725, 3.58701e-29, 1.4348e-24, 0.0434918
 7680, 276, 0.9725, 4.22393e-29, 1.68957e-24, 0.0434918
 7710, 277, 0.9725, 4.97098e-29, 1.98839e-24, 0.0434919
 7740, 278, 0.9725, 5.84671e-29, 2.33868e-24, 0.0434918
 7770, 279, 0.9725, 6.87267e-29, 2.74907e-24, 0.0434918
 7800, 280, 0.9725, 8.07394e-29, 3.22958e-24, 0.0434918
 7830, 281, 0.9725, 9.47967e-29, 3.79187e-24, 0.0434918
 7860, 282, 0.9725, 1.11237e-28, 4.44949e-24, 0.0434918
 7890, 283, 0.9725, 1.30454e-28, 5.21815e-24, 0.0434918
 7920, 284, 0.9725, 1.52903e-28, 6.1161e-24, 0.0434918
 7950, 285, 0.9725, 1.79112e-28, 7.1645e-24, 0.0434918
 7980, 286, 0.9725, 2.09697e-28, 8.38786e-24, 0.0434918
 8010, 287, 0.9725, 2.45365e-28, 9.81459e-24, 0.0434918
 8040, 288, 0.9725, 2.86939e-28, 1.14776e-23, 0.0434918
 8070, 289, 0.9725, 3.35371e-28, 1.34149e-23, 0.0434918
 8100, 290, 0.9725, 3.91761e-28, 1.56704e-23, 0.0434918
 8130, 291, 0.9725, 4.5738e-28, 1.82952e-23, 0.0434918
 8160, 292, 0.9725, 5.33698e-28, 2.13479e-23, 0.0434918
 8190, 293, 0.9725, 6.22411e-28, 2.48964e-23, 0.0434918
 8220, 294, 0.9725, 7.25476e-28, 2.9019e-23, 0.0434918
 8250, 295, 0.9725, 8.45151e-28, 3.3806e-23, 0.0434918
 8280, 296, 0.9725, 9.84041e-28, 3.93616e-23, 0.0434918
 8310, 297, 0.9725, 1.14514e-27, 4.58057e-23, 0.0434918
 8340, 298, 0.9725, 1.33191e-27, 5.32765e-23, 0.0434918
 8370, 299, 0.9725, 1.54833e-27, 6.19331e-23, 0.0434918
 8400, 300, 0.9725, 1.79896e-27, 7.19584e-23, 0.0434919
 8430, 301, 0.9725, 2.08907e-27, 8.35628e-23, 0.0434918
 8460, 302, 0.9725, 2.42471e-27, 9.69882e-23, 0.0434918
 8490, 303, 0.9725, 2.81281e-27, 1.12512e-22, 0.0434918
 8520, 304, 0.9725, 3.26136e-27, 1.30454e-22, 0.0434918
 8550, 305, 0.9725, 3.77949e-27, 1.5118e-22, 0.0434918
 8580, 306, 0.9725, 4.37772e-27, 1.75109e-22, 0.0434918
 8610, 307, 0.9725, 5.06807e-27, 2.02723e-22, 0.0434919
 8640, 308, 0.9725, 5.86433e-27, 2.34573e-22, 0.0434918
 8670, 309, 0.9725, 6.78228e-27, 2.71291e-22, 0.0434918
 8700, 310, 0.9725, 7.84002e-27, 3.13601e-22, 0.0434918
 8730, 311, 0.9725, 9.05822e-27, 3.62329e-22, 0.0434918
 8760, 312, 0.9725, 1.04605e-26, 4.18422e-22, 0.0434918
 8790, 313, 0.9725, 1.2074e-26, 4.82961e-22, 0.0434918
 8820, 314, 0.9725, 1.39296e-26, 5.57183e-22, 0.0434918
 8850, 315, 0.9725, 1.60625e-26, 6.425e-22, 0.0434918
 8880, 316, 0.9725, 1.8513e-26, 7.40521e-22, 0.0434918
 8910, 317, 0.9725, 2.13272e-26, 8.53087e-22, 0.0434918
 8940, 318, 0.9725, 2.45573e-26, 9.82293e-22, 0.0434918
 8970, 319, 0.9725, 2.82632e-26, 1.13053e-21, 0.0434918
 9000, 320, 0.9725, 3.2513e-26, 1.30052e-21, 0.0434918
 9030, 321, 0.9725, 3.73841e-26, 1.49537e-21, 0.0434918
 9060, 322, 0.9725, 4.29649e-26, 1.7186e-21, 0.0434918
 9090, 323, 0.9725, 4.93558e-26, 1.97423e-21, 0.0434918
 9120, 324, 0.9725, 5.66709e-26, 2.26684e-21, 0.0434918
 9150, 325, 0.9725, 6.50401e-26, 2.60161e-21, 0.0434918
 9180, 326, 0.9725, 7.4611e-26, 2.98444e-21, 0.0434918
 9210, 327, 0.9725, 8.55512e-26, 3.42205e-21, 0.0434918
 9240, 328, 0.9725, 9.80509e-26, 3.92204e-21, 0.0434918
 9270, 329, 0.9725, 1.12326e-25, 4.49304e-21, 0.0434918
 9300, 330, 0.9725, 1.28621e-25, 5.14485e-21, 0.0434918
 9330, 331, 0.9725, 1.47215e-25, 5.88859e-21, 0.0434918
 9360, 332, 0.9725, 1.68421e-25, 6.73683e-21, 0.0434918
 9390, 333, 0.9725, 1.92596e-25, 7.70384e-21, 0.0434918
 9420, 334, 0.9725, 2.20144e-25, 8.80576e-21, 0.0434918
 9450, 335, 0.9725, 2.51522e-25, 1.00609e-20, 0.0434918
 9480, 336, 0.9725, 2.87246e-25, 1.14898e-20, 0.0434918
 9510, 337, 0.9725, 3.27902e-25, 1.31161e-20, 0.0434918
 9540, 338, 0.9725, 3.7415e-25, 1.4966e-20, 0.0434918
 9570, 339, 0.9725, 4.26736e-25, 1.70695e-20, 0.0434918
 9600, 340, 0.9725, 4.86505e-25, 1.94602e-20, 0.0434919
 9630, 341, 0.9725, 5.54409e-25, 2.21764e-20, 0.0434918
 9660, 342, 0.9725, 6.31522e-25, 2.52609e-20, 0.0434918
 9690, 343, 0.9725, 7.19056e-25, 2.87622e-20, 0.0434918
 9720, 344, 0.9725, 8.18379e-25, 3.27352e-20, 0.0434918
 9750, 345, 0.9725, 9.31032e-25, 3.72413e-20, 0.0434918
 9780, 346, 0.9725, 1.05875e-24, 4.235e-20, 0.0434918
 9810, 347, 0.9725, 1.20349e-24, 4.81396e-20, 0.0434918
 9840, 348, 0.9725, 1.36745e-24, 5.46982e-20, 0.0434918
 9870, 349, 0.9725, 1.55312e-24, 6.21247e-20, 0.0434918
 9900, 350, 0.9725, 1.76327e-24, 7.05307e-20, 0.0434918
 9930, 351, 0.9725, 2.00104e-24, 8.00416e-20, 0.0434918
 9960, 352, 0.9725, 2.26996e-24, 9.07983e-20, 0.0434918
 9990, 353, 0.9725, 2.57398e-24, 1.02959e-19, 0.0434919
 10020, 354, 0.9725, 2.91754e-24, 1.16702e-19, 0.0434918
 10050, 355, 0.9725, 3.30565e-24, 1.32226e-19, 0.0434918
 10080, 356, 0.9725, 3.7439e-24, 1.49756e-19, 0.0434919
 10110, 357, 0.9725, 4.23857e-24, 1.69543e-19, 0.0434918
 10140, 358, 0.9725, 4.79671e-24, 1.91869e-19, 0.0434918
 10170, 359, 0.9725, 5.42624e-24, 2.17049e-19, 0.0434919
 10200, 360, 0.9725, 6.13598e-24, 2.45439e-19, 0.0434918
 10230, 361, 0.9725, 6.93588e-24, 2.77435e-19, 0.0434918
 10260, 362, 0.9725, 7.83702e-24, 3.13481e-19, 0.0434918
 10290, 363, 0.9725, 8.85184e-24, 3.54074e-19, 0.0434918
 10320, 364, 0.9725, 9.99426e-24, 3.9977e-19, 0.0434918
 10350, 365, 0.9725, 1.12798e-23, 4.51193e-19, 0.0434918
 10380, 366, 0.9725, 1.27259e-23, 5.09037e-19, 0.0434918
 10410, 367, 0.9725, 1.4352e-23, 5.74081e-19, 0.0434918
 10440, 368, 0.9725, 1.61798e-23, 6.47192e-19, 0.0434918
 10470, 369, 0.9725, 1.82336e-23, 7.29343e-19, 0.0434918
 10500, 370, 0.9725, 2.05404e-23, 8.21616e-19, 0.0434919
 10530, 371, 0.9725, 2.31305e-23, 9.25221e-19, 0.0434918
 10560, 372, 0.9725, 2.60377e-23, 1.04151e-18, 0.0434918
 10590, 373, 0.9725, 2.92994e-23, 1.17198e-18, 0.0434918
 10620, 374, 0.9725, 3.29578e-23, 1.31831e-18, 0.0434918
 10650, 375, 0.9725, 3.70595e-23, 1.48238e-18, 0.0434918
 10680, 376, 0.9725, 4.16566e-23, 1.66626e-18, 0.0434918
 10710, 377, 0.9725, 4.68071e-23, 1.87228e-18, 0.0434918
 10740, 378, 0.9725, 5.25756e-23, 2.10303e-18, 0.0434918
 10770, 379, 0.9725, 5.9034e-23, 2.36136e-18, 0.0434918
 10800, 380, 0.9725, 6.62622e-23, 2.65049e-18, 0.0434918
 10830, 381, 0.9725, 7.43492e-23, 2.97397e-18, 0.0434918
 10860, 382, 0.9725, 8.33939e-23, 3.33576e-18, 0.0434918
 10890, 383, 0.9725, 9.35061e-23, 3.74024e-18, 0.0434918
 10920, 384, 0.9725, 1.04808e-22, 4.19232e-18, 0.0434918
 10950, 385, 0.9725, 1.17435e-22, 4.69741e-18, 0.0434918
 10980, 386, 0.9725, 1.31538e-22, 5.26153e-18, 0.0434918
 11010, 387, 0.9725, 1.47284e-22, 5.89138e-18, 0.0434918
 11040, 388, 0.9725, 1.64859e-22, 6.59437e-18, 0.0434918
 11070, 389, 0.9725, 1.84468e-22, 7.37873e-18, 0.0434919
 11100, 390, 0.9725, 2.0634e-22, 8.25359e-18, 0.0434918
 11130, 391, 0.9725, 2.30726e-22, 9.22906e-18, 0.0434918
 11160, 392, 0.9725, 2.57909e-22, 1.03163e-17, 0.0434918
 11190, 393, 0.9725, 2.88197e-22, 1.15279e-17, 0.0434918
 11220, 394, 0.9725, 3.21935e-22, 1.28774e-17, 0.0434918
 11250, 395, 0.9725, 3.59504e-22, 1.43801e-17, 0.0434918
 11280, 396, 0.9725, 4.01324e-22, 1.6053e-17, 0.0434918
 11310, 397, 0.9725, 4.47862e-22, 1.79145e-17, 0.0434918
 11340, 398, 0.9725, 4.99633e-22, 1.99853e-17, 0.0434918
 11370, 399, 0.9725, 5.57208e-22, 2.22883e-17, 0.0434918
 11400, 400, 0.9725, 6.21215e-22, 2.48486e-17, 0.0434918
 11430, 401, 0.9725, 6.92352e-22, 2.76941e-17, 0.0434918
 11460, 402, 0.9725, 7.71387e-22, 3.08555e-17, 0.0434918
 11490, 403, 0.9725, 8.5917e-22, 3.43668e-17, 0.0434918
 11520, 404, 0.9725, 9.56638e-22, 3.82655e-17, 0.0434918
 11550, 405, 0.9725, 1.06482e-21, 4.2593e-17, 0.0434918
 11580, 406, 0.9725, 1.18487e-21, 4.73949e-17, 0.0434918
 11610, 407, 0.9725, 1.31804e-21, 5.27217e-17, 0.0434918
 11640, 408, 0.9725, 1.46572e-21, 5.86288e-17, 0.0434919
 11670, 409, 0.9725, 1.62943e-21, 6.51774e-17, 0.0434918
 11700, 410, 0.9725, 1.81088e-21, 7.2435e-17, 0.0434918
 11730, 411, 0.9725, 2.0119e-21, 8.04759e-17, 0.0434918
 11760, 412, 0.9725, 2.23455e-21, 8.9382e-17, 0.0434918
 11790, 413, 0.9725, 2.48108e-21, 9.92433e-17, 0.0434918
 11820, 414, 0.9725, 2.75398e-21, 1.10159e-16, 0.0434918
 11850, 415, 0.9725, 3.05596e-21, 1.22238e-16, 0.0434918
 11880, 416, 0.9725, 3.39003e-21, 1.35601e-16, 0.0434918
 11910, 417, 0.9725, 3.75949e-21, 1.5038e-16, 0.0434918
 11940, 418, 0.9725, 4.16797e-21, 1.66719e-16, 0.0434918
 11970, 419, 0.9725, 4.61946e-21, 1.84778e-16, 0.0434919
 12000, 420, 0.9725, 5.11833e-21, 2.04733e-16, 0.0434918
 12030, 421, 0.9725, 5.6694e-21, 2.26776e-16, 0.0434918
 12060, 422, 0.9725, 6.27795e-21, 2.51118e-16, 0.0434918
 12090, 423, 0.9725, 6.94979e-21, 2.77992e-16, 0.0434918
 12120, 424, 0.9725, 7.69129e-21, 3.07652e-16, 0.0434918
 12150, 425, 0.9725, 8.50942e-21, 3.40377e-16, 0.0434918
 12180, 426, 0.9725, 9.41186e-21, 3.76475e-16, 0.0434918
 12210, 427, 0.9725, 1.0407e-20, 4.16281e-16, 0.0434918
 12240, 428, 0.9725, 1.15041e-20, 4.60163e-16, 0.0434918
 12270, 429, 0.9725, 1.27132e-20, 5.08527e-16, 0.0434919
 12300, 430, 0.9725, 1.40454e-20, 5.61814e-16, 0.0434918
 12330, 431, 0.9725, 1.55127e-20, 6.20509e-16, 0.0434918
 12360, 432, 0.9725, 1.71286e-20, 6.85143e-16, 0.0434918
 12390, 433, 0.9725, 1.89074e-20, 7.56298e-16, 0.0434918
 12420, 434, 0.9725, 2.08652e-20, 8.34608e-16, 0.0434918
 12450, 435, 0.9725, 2.30193e-20, 9.20771e-16, 0.0434918
 12480, 436, 0.9725, 2.53887e-20, 1.01555e-15, 0.0434918
 12510, 437, 0.9725, 2.79943e-20, 1.11977e-15, 0.0434918
 12540, 438, 0.9725, 3.08588e-20, 1.23435e-15, 0.0434918
 12570, 439, 0.9725, 3.40071e-20, 1.36029e-15, 0.0434918
 12600, 440, 0.9725, 3.74664e-20, 1.49866e-15, 0.0434918
 12630, 441, 0.9725, 4.12664e-20, 1.65066e-15, 0.0434918
 12660, 442, 0.9725, 4.54396e-20, 1.81758e-15, 0.0434918
 12690, 443, 0.9725, 5.00213e-20, 2.00085e-15, 0.0434918
 12720, 444, 0.9725, 5.50502e-20, 2.20201e-15, 0.0434918
 12750, 445, 0.9725, 6.05686e-20, 2.42274e-15, 0.0434918
 12780, 446, 0.9725, 6.66224e-20, 2.6649e-15, 0.0434918
 12810, 447, 0.9725, 7.32619e-20, 2.93048e-15, 0.0434918
 12840, 448, 0.9725, 8.05419e-20, 3.22167e-15, 0.0434918
 12870, 449, 0.9725, 8.8522e-20, 3.54088e-15, 0.0434918
 12900, 450, 0.9725, 9.72674e-20, 3.8907e-15, 0.0434918
 12930, 451, 0.9725, 1.06849e-19, 4.27396e-15, 0.0434918
 12960, 452, 0.9725, 1.17344e-19, 4.69376e-15, 0.0434919
 12990, 453, 0.9725, 1.28837e-19, 5.15347e-15, 0.0434918
 13020, 454, 0.9725, 1.41419e-19, 5.65674e-15, 0.0434918
 13050, 455, 0.9725, 1.55189e-19, 6.20758e-15, 0.0434918
 13080, 456, 0.9725, 1.70258e-19, 6.81032e-15, 0.0434918
 13110, 457, 0.9725, 1.86742e-19, 7.46968e-15, 0.0434918
 13140, 458, 0.9725, 2.0477e-19, 8.19082e-15, 0.0434918
 13170, 459, 0.9725, 2.24483e-19, 8.97931e-15, 0.0434919
 13200, 460, 0.9725, 2.46031e-19, 9.84124e-15, 0.0434918
 13230, 461, 0.9725, 2.6958e-19, 1.07832e-14, 0.0434918
 13260, 462, 0.9725, 2.9531e-19, 1.18124e-14, 0.0434918
 13290, 463, 0.9725, 3.23416e-19, 1.29366e-14, 0.0434918
 13320, 464, 0.9725, 3.54109e-19, 1.41644e-14, 0.0434918
 13350, 465, 0.9725, 3.8762e-19, 1.55048e-14, 0.0434918
 13380, 466, 0.9725, 4.24198e-19, 1.69679e-14, 0.0434918
 13410, 467, 0.9725, 4.64115e-19, 1.85646e-14, 0.0434918
 13440, 468, 0.9725, 5.07665e-19, 2.03066e-14, 0.0434918
 13470, 469, 0.9725, 5.55167e-19, 2.22067e-14, 0.0434918
 13500, 470, 0.9725, 6.06968e-19, 2.42787e-14, 0.0434918
 13530, 471, 0.9725, 6.63443e-19, 2.65377e-14, 0.0434918
 13560, 472, 0.9725, 7.25e-19, 2.9e-14, 0.0434918
 13590, 473, 0.9725, 7.92079e-19, 3.16832e-14, 0.0434918
 13620, 474, 0.9725, 8.65161e-19, 3.46064e-14, 0.0434918
 13650, 475, 0.9725, 9.44762e-19, 3.77905e-14, 0.0434918
 13680, 476, 0.9725, 1.03144e-18, 4.12578e-14, 0.0434918
 13710, 477, 0.9725, 1.12582e-18, 4.50327e-14, 0.0434918
 13740, 478, 0.9725, 1.22854e-18, 4.91415e-14, 0.0434919
 13770, 479, 0.9725, 1.34032e-18, 5.36128e-14, 0.0434918
 13800, 480, 0.9725, 1.46193e-18, 5.84773e-14, 0.0434918
 13830, 481, 0.9725, 1.59421e-18, 6.37686e-14, 0.0434918
 13860, 482, 0.9725, 1.73807e-18, 6.95227e-14, 0.0434918
 13890, 483, 0.9725, 1.89447e-18, 7.57787e-14, 0.0434918
 13920, 484, 0.9725, 2.06447e-18, 8.25788e-14, 0.0434918
 13950, 485, 0.9725, 2.24922e-18, 8.99688e-14, 0.0434918
 13980, 486, 0.9725, 2.44995e-18, 9.79979e-14, 0.0434918
 14010, 487, 0.9725, 2.66799e-18, 1.0672e-13, 0.0434918
 14040, 488, 0.9725, 2.90479e-18, 1.16192e-13, 0.0434918
 14070, 489, 0.9725, 3.1619e-18, 1.26476e-13, 0.0434918
 14100, 490, 0.9725, 3.441e-18, 1.3764e-13, 0.0434918
 14130, 491, 0.9725, 3.74391e-18, 1.49756e-13, 0.0434918
 14160, 492, 0.9725, 4.07258e-18, 1.62903e-13, 0.0434918
 14190, 493, 0.9725, 4.42914e-18, 1.77165e-13, 0.0434918
 14220, 494, 0.9725, 4.81585e-18, 1.92634e-13, 0.0434918
 14250, 495, 0.9725, 5.2352e-18, 2.09408e-13, 0.0434918
 14280, 496, 0.9725, 5.68982e-18, 2.27593e-13, 0.0434918
 14310, 497, 0.9725, 6.18258e-18, 2.47303e-13, 0.0434918
 14340, 498, 0.9725, 6.71657e-18, 2.68663e-13, 0.0434918
 14370, 499, 0.9725, 7.29512e-18, 2.91805e-13, 0.0434918
 14400, 500, 0.9725, 7.92181e-18, 3.16872e-13, 0.0434918
 14430, 501, 0.9725, 8.6005e-18, 3.4402e-13, 0.0434918
 14460, 502, 0.9725, 9.33536e-18, 3.73415e-13, 0.0434918
 14490, 503, 0.9725, 1.01309e-17, 4.05235e-13, 0.0434918
 14520, 504, 0.9725, 1.09919e-17, 4.39674e-13, 0.0434918
 14550, 505, 0.9725, 1.19235e-17, 4.7694e-13, 0.0434918
 14580, 506, 0.9725, 1.29314e-17, 5.17257e-13, 0.0434918
 14610, 507, 0.9725, 1.40216e-17, 5.60865e-13, 0.0434918
 14640, 508, 0.9725, 1.52006e-17, 6.08024e-13, 0.0434918
 14670, 509, 0.9725, 1.64753e-17, 6.59012e-13, 0.0434918
 14700, 510, 0.9725, 1.78532e-17, 7.14128e-13, 0.0434918
 14730, 511, 0.9725, 1.93424e-17, 7.73696e-13, 0.0434918
 14760, 512, 0.9725, 2.09515e-17, 8.38062e-13, 0.0434918
 14790, 513, 0.9725, 2.26899e-17, 9.07597e-13, 0.0434918
 14820, 514, 0.9725, 2.45676e-17, 9.82704e-13, 0.0434918
 14850, 515, 0.9725, 2.65953e-17, 1.06381e-12, 0.0434918
 14880, 516, 0.9725, 2.87845e-17, 1.15138e-12, 0.0434918
 14910, 517, 0.9725, 3.11477e-17, 1.24591e-12, 0.0434918
 14940, 518, 0.9725, 3.36982e-17, 1.34793e-12, 0.0434918
 14970, 519, 0.9725, 3.64503e-17, 1.45801e-12, 0.0434918
 15000, 520, 0.9725, 3.94194e-17, 1.57678e-12, 0.0434918
 15030, 521, 0.9725, 4.26219e-17, 1.70488e-12, 0.0434918
 15060, 522, 0.9725, 4.60755e-17, 1.84302e-12, 0.0434918
 15090, 523, 0.9725, 4.97992e-17, 1.99197e-12, 0.0434918
 15120, 524, 0.9725, 5.38134e-17, 2.15254e-12, 0.0434918
 15150, 525, 0.9725, 5.81399e-17, 2.32559e-12, 0.0434917
 15180, 526, 0.9725, 6.2802e-17, 2.51208e-12, 0.0434918
 15210, 527, 0.9725, 6.78249e-17, 2.713e-12, 0.0434918
 15240, 528, 0.9725, 7.32355e-17, 2.92942e-12, 0.0434918
 15270, 529, 0.9725, 7.90625e-17, 3.1625e-12, 0.0434918
 15300, 530, 0.9725, 8.53369e-17, 3.41348e-12, 0.0434918
 15330, 531, 0.9725, 9.20918e-17, 3.68367e-12, 0.0434918
 15360, 532, 0.9725, 9.93625e-17, 3.9745e-12, 0.0434918
 15390, 533, 0.9725, 1.07187e-16, 4.28748e-12, 0.0434918
 15420, 534, 0.9725, 1.15606e-16, 4.62424e-12, 0.0434918
 15450, 535, 0.9725, 1.24663e-16, 4.98652e-12, 0.0434918
 15480, 536, 0.9725, 1.34404e-16, 5.37618e-12, 0.0434918
 15510, 537, 0.9725, 1.4488e-16, 5.79521e-12, 0.0434918
 15540, 538, 0.9725, 1.56144e-16, 6.24574e-12, 0.0434918
 15570, 539, 0.9725, 1.68252e-16, 6.73006e-12, 0.0434918
 15600, 540, 0.9725, 1.81265e-16, 7.2506e-12, 0.0434918
 15630, 541, 0.9725, 1.95249e-16, 7.80998e-12, 0.0434918
 15660, 542, 0.9725, 2.10274e-16, 8.41097e-12, 0.0434918
 15690, 543, 0.9725, 2.26414e-16, 9.05657e-12, 0.0434918
 15720, 544, 0.9725, 2.43749e-16, 9.74996e-12, 0.0434918
 15750, 545, 0.9725, 2.62364e-16, 1.04945e-11, 0.0434918
 15780, 546, 0.9725, 2.82349e-16, 1.1294e-11, 0.0434918
 15810, 547, 0.9725, 3.03802e-16, 1.21521e-11, 0.0434918
 15840, 548, 0.9725, 3.26827e-16, 1.30731e-11, 0.0434918
 15870, 549, 0.9725, 3.51535e-16, 1.40614e-11, 0.0434918
 15900, 550, 0.9725, 3.78044e-16, 1.51217e-11, 0.0434918
 15930, 551, 0.9725, 4.06479e-16, 1.62592e-11, 0.0434918
 15960, 552, 0.9725, 4.36977e-16, 1.74791e-11, 0.0434918
 15990, 553, 0.9725, 4.69681e-16, 1.87873e-11, 0.0434918
 16020, 554, 0.9725, 5.04745e-16, 2.01898e-11, 0.0434918
 16050, 555, 0.9725, 5.42331e-16, 2.16933e-11, 0.0434918
 16080, 556, 0.9725, 5.82616e-16, 2.33046e-11, 0.0434918
 16110, 557, 0.9725, 6.25785e-16, 2.50314e-11, 0.0434918
 16140, 558, 0.9725, 6.72037e-16, 2.68815e-11, 0.0434918
 16170, 559, 0.9725, 7.21584e-16, 2.88634e-11, 0.0434918
 16200, 560, 0.9725, 7.74652e-16, 3.09861e-11, 0.0434918
 16230, 561, 0.9725, 8.31481e-16, 3.32592e-11, 0.0434918
 16260, 562, 0.9725, 8.92327e-16, 3.56931e-11, 0.0434918
 16290, 563, 0.9725, 9.57465e-16, 3.82986e-11, 0.0434918
 16320, 564, 0.9725, 1.02718e-15, 4.10874e-11, 0.0434918
 16350, 565, 0.9725, 1.1018e-15, 4.40718e-11, 0.0434918
 16380, 566, 0.9725, 1.18163e-15, 4.72652e-11, 0.0434918
 16410, 567, 0.9725, 1.26704e-15, 5.06814e-11, 0.0434918
 16440, 568, 0.9725, 1.35839e-15, 5.43356e-11, 0.0434917
 16470, 569, 0.9725, 1.45609e-15, 5.82436e-11, 0.0434918
 16500, 570, 0.9725, 1.56056e-15, 6.24224e-11, 0.0434918
 16530, 571, 0.9725, 1.67225e-15, 6.68901e-11, 0.0434918
 16560, 572, 0.9725, 1.79164e-15, 7.16658e-11, 0.0434918
 16590, 573, 0.9725, 1.91925e-15, 7.67699e-11, 0.0434918
 16620, 574, 0.9725, 2.05561e-15, 8.22242e-11, 0.0434918
 16650, 575, 0.9725, 2.20129e-15, 8.80518e-11, 0.0434918
 16680, 576, 0.9725, 2.35693e-15, 9.42771e-11, 0.0434918
 16710, 577, 0.9725, 2.52316e-15, 1.00926e-10, 0.0434918
 16740, 578, 0.9725, 2.70068e-15, 1.08027e-10, 0.0434918
 16770, 579, 0.9725, 2.89024e-15, 1.1561e-10, 0.0434918
 16800, 580, 0.9725, 3.0926e-15, 1.23704e-10, 0.0434918
 16830, 581, 0.9725, 3.30861e-15, 1.32345e-10, 0.0434918
 16860, 582, 0.9725, 3.53915e-15, 1.41566e-10, 0.0434918
 16890, 583, 0.9725, 3.78516e-15, 1.51406e-10, 0.0434919
 16920, 584, 0.9725, 4.04763e-15, 1.61905e-10, 0.0434918
 16950, 585, 0.9725, 4.32763e-15, 1.73105e-10, 0.0434917
 16980, 586, 0.9725, 4.62627e-15, 1.85051e-10, 0.0434918
 17010, 587, 0.9725, 4.94476e-15, 1.9779e-10, 0.0434918
 17040, 588, 0.9725, 5.28435e-15, 2.11374e-10, 0.0434918
 17070, 589, 0.9725, 5.6464e-15, 2.25856e-10, 0.0434918
 17100, 590, 0.9725, 6.03233e-15, 2.41293e-10, 0.0434918
 17130, 591, 0.9725, 6.44365e-15, 2.57746e-10, 0.0434918
 17160, 592, 0.9725, 6.88196e-15, 2.75278e-10, 0.0434918
 17190, 593, 0.9725, 7.34897e-15, 2.93959e-10, 0.0434918
 17220, 594, 0.9725, 7.84649e-15, 3.1386e-10, 0.0434918
 17250, 595, 0.9725, 8.37642e-15, 3.35057e-10, 0.0434917
 17280, 596, 0.9725, 8.9408e-15, 3.57632e-10, 0.0434918
 17310, 597, 0.9725, 9.54178e-15, 3.81671e-10, 0.0434918
 17340, 598, 0.9725, 1.01816e-14, 4.07265e-10, 0.0434918
 17370, 599, 0.9725, 1.08628e-14, 4.34511e-10, 0.0434918
 17400, 600, 0.9725, 1.15878e-14, 4.6351e-10, 0.0434918
 17430, 601, 0.9725, 1.23593e-14, 4.94372e-10, 0.0434918
 17460, 602, 0.9725, 1.31803e-14, 5.27211e-10, 0.0434918
 17490, 603, 0.9725, 1.40537e-14, 5.62149e-10, 0.0434918
 17520, 604, 0.9725, 1.49829e-14, 5.99315e-10, 0.0434918
 17550, 605, 0.9725, 1.59711e-14, 6.38845e-10, 0.0434918
 17580, 606, 0.9725, 1.70221e-14, 6.80883e-10, 0.0434918
 17610, 607, 0.9725, 1.81395e-14, 7.25582e-10, 0.0434918
 17640, 608, 0.9725, 1.93276e-14, 7.73104e-10, 0.0434918
 17670, 609, 0.9725, 2.05905e-14, 8.2362e-10, 0.0434918
 17700, 610, 0.9725, 2.19328e-14, 8.77311e-10, 0.0434918
 17730, 611, 0.9725, 2.33592e-14, 9.34368e-10, 0.0434918
 17760, 612, 0.9725, 2.48749e-14, 9.94995e-10, 0.0434918
 17790, 613, 0.9725, 2.64851e-14, 1.05941e-09, 0.0434918
 17820, 614, 0.9725, 2.81956e-14, 1.12783e-09, 0.0434918
 17850, 615, 0.9725, 3.00124e-14, 1.2005e-09, 0.0434918
 17880, 616, 0.9725, 3.19417e-14, 1.27767e-09, 0.0434918
 17910, 617, 0.9725, 3.39903e-14, 1.35961e-09, 0.0434918
 17940, 618, 0.9725, 3.61652e-14, 1.44661e-09, 0.0434918
 17970, 619, 0.9725, 3.8474e-14, 1.53896e-09, 0.0434918
 18000, 620, 0.9725, 4.09244e-14, 1.63698e-09, 0.0434918
 18030, 621, 0.9725, 4.35249e-14, 1.741e-09, 0.0434918
 18060, 622, 0.9725, 4.62843e-14, 1.85137e-09, 0.0434917
 18090, 623, 0.9725, 4.92119e-14, 1.96848e-09, 0.0434918
 18120, 624, 0.9725, 5.23175e-14, 2.0927e-09, 0.0434918
 18150, 625, 0.9725, 5.56115e-14, 2.22446e-09, 0.0434917
 18180, 626, 0.9725, 5.91049e-14, 2.3642e-09, 0.0434918
 18210, 627, 0.9725, 6.28092e-14, 2.51237e-09, 0.0434918
 18240, 628, 0.9725, 6.67367e-14, 2.66947e-09, 0.0434918
 18270, 629, 0.9725, 7.09003e-14, 2.83601e-09, 0.0434918
 18300, 630, 0.9725, 7.53135e-14, 3.01254e-09, 0.0434918
 18330, 631, 0.9725, 7.99907e-14, 3.19963e-09, 0.0434918
 18360, 632, 0.9725, 8.49471e-14, 3.39788e-09, 0.0434918
 18390, 633, 0.9725, 9.01986e-14, 3.60794e-09, 0.0434918
 18420, 634, 0.9725, 9.57621e-14, 3.83048e-09, 0.0434918
 18450, 635, 0.9725, 1.01655e-13, 4.06621e-09, 0.0434918
 18480, 636, 0.9725, 1.07897e-13, 4.31588e-09, 0.0434918
 18510, 637, 0.9725, 1.14507e-13, 4.58029e-09, 0.0434918
 18540, 638, 0.9725, 1.21506e-13, 4.86025e-09, 0.0434918
 18570, 639, 0.9725, 1.28916e-13, 5.15666e-09, 0.0434918
 18600, 640, 0.9725, 1.36761e-13, 5.47043e-09, 0.0434918
 18630, 641, 0.9725, 1.45064e-13, 5.80254e-09, 0.0434918
 18660, 642, 0.9725, 1.53851e-13, 6.15403e-09, 0.0434918
 18690, 643, 0.9725, 1.63149e-13, 6.52597e-09, 0.0434918
 18720, 644, 0.9725, 1.72988e-13, 6.9195e-09, 0.0434918
 18750, 645, 0.9725, 1.83396e-13, 7.33583e-09, 0.0434918
 18780, 646, 0.9725, 1.94405e-13, 7.77622e-09, 0.0434918
 18810, 647, 0.9725, 2.0605e-13, 8.242e-09, 0.0434918
 18840, 648, 0.9725, 2.18364e-13, 8.73458e-09, 0.0434918
 18870, 649, 0.9725, 2.31386e-13, 9.25543e-09, 0.0434918
 18900, 650, 0.9725, 2.45153e-13, 9.80611e-09, 0.0434918
 18930, 651, 0.9725, 2.59706e-13, 1.03883e-08, 0.0434918
 18960, 652, 0.9725, 2.7509e-13, 1.10036e-08, 0.0434918
 18990, 653, 0.9725, 2.91348e-13, 1.16539e-08, 0.0434917
 19020, 654, 0.9725, 3.08529e-13, 1.23412e-08, 0.0434918
 19050, 655, 0.9725, 3.26683e-13, 1.30673e-08, 0.0434918
 19080, 656, 0.9725, 3.45862e-13, 1.38345e-08, 0.0434918
 19110, 657, 0.9725, 3.66123e-13, 1.46449e-08, 0.0434918
 19140, 658, 0.9725, 3.87523e-13, 1.55009e-08, 0.0434918
 19170, 659, 0.9725, 4.10124e-13, 1.64049e-08, 0.0434918
 19200, 660, 0.9725, 4.3399e-13, 1.73596e-08, 0.0434918
 19230, 661, 0.9725, 4.59189e-13, 1.83676e-08, 0.0434918
 19260, 662, 0.9725, 4.85793e-13, 1.94317e-08, 0.0434918
 19290, 663, 0.9725, 5.13877e-13, 2.05551e-08, 0.0434918
 19320, 664, 0.9725, 5.43519e-13, 2.17407e-08, 0.0434918
 19350, 665, 0.9725, 5.74802e-13, 2.29921e-08, 0.0434918
 19380, 666, 0.9725, 6.07813e-13, 2.43125e-08, 0.0434918
 19410, 667, 0.9725, 6.42643e-13, 2.57057e-08, 0.0434918
 19440, 668, 0.9725, 6.79389e-13, 2.71756e-08, 0.0434918
 19470, 669, 0.9725, 7.18151e-13, 2.87261e-08, 0.0434918
 19500, 670, 0.9725, 7.59036e-13, 3.03614e-08, 0.0434918
 19530, 671, 0.9725, 8.02154e-13, 3.20862e-08, 0.0434918
 19560, 672, 0.9725, 8.47623e-13, 3.39049e-08, 0.0434918
 19590, 673, 0.9725, 8.95564e-13, 3.58226e-08, 0.0434918
 19620, 674, 0.9725, 9.46107e-13, 3.78443e-08, 0.0434918
 19650, 675, 0.9725, 9.99386e-13, 3.99755e-08, 0.0434918
 19680, 676, 0.9725, 1.05554e-12, 4.22218e-08, 0.0434918
 19710, 677, 0.9725, 1.11473e-12, 4.45892e-08, 0.0434919
 19740, 678, 0.9725, 1.1771e-12, 4.7084e-08, 0.0434918
 19770, 679, 0.9725, 1.24282e-12, 4.97126e-08, 0.0434918
 19800, 680, 0.9725, 1.31205e-12, 5.24821e-08, 0.0434919
 19830, 681, 0.9725, 1.38499e-12, 5.53995e-08, 0.0434919
 19860, 682, 0.9725, 1.46181e-12, 5.84725e-08, 0.0434918
 19890, 683, 0.9725, 1.54272e-12, 6.17089e-08, 0.0434918
 19920, 684, 0.9725, 1.62793e-12, 6.51172e-08, 0.0434918
 19950, 685, 0.9725, 1.71765e-12, 6.8706e-08, 0.0434918
 19980, 686, 0.9725, 1.81211e-12, 7.24845e-08, 0.0434918
 20010, 687, 0.9725, 1.91156e-12, 7.64623e-08, 0.0434918
 20040, 688, 0.9725, 2.01623e-12, 8.06493e-08, 0.0434918
 20070, 689, 0.9725, 2.12641e-12, 8.50563e-08, 0.0434918
 20100, 690, 0.9725, 2.24235e-12, 8.96941e-08, 0.0434918
 20130, 691, 0.9725, 2.36436e-12, 9.45744e-08, 0.0434917
 20160, 692, 0.9725, 2.49273e-12, 9.97093e-08, 0.0434918
 20190, 693, 0.9725, 2.62779e-12, 1.05112e-07, 0.0434918
 20220, 694, 0.9725, 2.76986e-12, 1.10794e-07, 0.0434918
 20250, 695, 0.9725, 2.91929e-12, 1.16772e-07, 0.0434918
 20280, 696, 0.9725, 3.07645e-12, 1.23058e-07, 0.0434918
 20310, 697, 0.9725, 3.24172e-12, 1.29669e-07, 0.0434918
 20340, 698, 0.9725, 3.41551e-12, 1.3662e-07, 0.0434918
 20370, 699, 0.9725, 3.59822e-12, 1.43929e-07, 0.0434918
 20400, 700, 0.9725, 3.7903e-12, 1.51612e-07, 0.0434918
 20430, 701, 0.9725, 3.99221e-12, 1.59688e-07, 0.0434919
 20460, 702, 0.9725, 4.20442e-12, 1.68177e-07, 0.0434919
 20490, 703, 0.9725, 4.42745e-12, 1.77098e-07, 0.0434918
 20520, 704, 0.9725, 4.66181e-12, 1.86472e-07, 0.0434918
 20550, 705, 0.9725, 4.90806e-12, 1.96323e-07, 0.0434918
 20580, 706, 0.9725, 5.16678e-12, 2.06671e-07, 0.0434918
 20610, 707, 0.9725, 5.43856e-12, 2.17543e-07, 0.0434918
 20640, 708, 0.9725, 5.72405e-12, 2.28962e-07, 0.0434918
 20670, 709, 0.9725, 6.02389e-12, 2.40955e-07, 0.0434918
 20700, 710, 0.9725, 6.33877e-12, 2.53551e-07, 0.0434918
 20730, 711, 0.9725, 6.66943e-12, 2.66777e-07, 0.0434918
 20760, 712, 0.9725, 7.01661e-12, 2.80665e-07, 0.0434917
 20790, 713, 0.9725, 7.38111e-12, 2.95244e-07, 0.0434918
 20820, 714, 0.9725, 7.76374e-12, 3.1055e-07, 0.0434918
 20850, 715, 0.9725, 8.16537e-12, 3.26615e-07, 0.0434918
 20880, 716, 0.9725, 8.58691e-12, 3.43476e-07, 0.0434918
 20910, 717, 0.9725, 9.02929e-12, 3.61172e-07, 0.0434919
 20940, 718, 0.9725, 9.49349e-12, 3.7974e-07, 0.0434918
 20970, 719, 0.9725, 9.98056e-12, 3.99222e-07, 0.0434918
 21000, 720, 0.9725, 1.04916e-11, 4.19662e-07, 0.0434918
 21030, 721, 0.9725, 1.10276e-11, 4.41104e-07, 0.0434918
 21060, 722, 0.9725, 1.15899e-11, 4.63595e-07, 0.0434918
 21090, 723, 0.9725, 1.21796e-11, 4.87184e-07, 0.0434918
 21120, 724, 0.9725, 1.27981e-11, 5.11923e-07, 0.0434919
 21150, 725, 0.9725, 1.34466e-11, 5.37864e-07, 0.0434918
 21180, 726, 0.9725, 1.41266e-11, 5.65064e-07, 0.0434918
 21210, 727, 0.9725, 1.48395e-11, 5.93581e-07, 0.0434918
 21240, 728, 0.9725, 1.55869e-11, 6.23476e-07, 0.0434918
 21270, 729, 0.9725, 1.63703e-11, 6.54812e-07, 0.0434917
 21300, 730, 0.9725, 1.71914e-11, 6.87656e-07, 0.0434918
 21330, 731, 0.9725, 1.80519e-11, 7.22077e-07, 0.0434918
 21360, 732, 0.9725, 1.89537e-11, 7.58147e-07, 0.0434918
 21390, 733, 0.9725, 1.98985e-11, 7.95942e-07, 0.0434918
 21420, 734, 0.9725, 2.08885e-11, 8.3554e-07, 0.0434918
 21450, 735, 0.9725, 2.19256e-11, 8.77024e-07, 0.0434918
 21480, 736, 0.9725, 2.3012e-11, 9.20479e-07, 0.0434918
 21510, 737, 0.9725, 2.41499e-11, 9.65995e-07, 0.0434918
 21540, 738, 0.9725, 2.53416e-11, 1.01366e-06, 0.0434918
 21570, 739, 0.9725, 2.65896e-11, 1.06358e-06, 0.0434918
 21600, 740, 0.9725, 2.78964e-11, 1.11586e-06, 0.0434918
 21630, 741, 0.9725, 2.92647e-11, 1.17059e-06, 0.0434918
 21660, 742, 0.9725, 3.06972e-11, 1.22789e-06, 0.0434918
 21690, 743, 0.9725, 3.21968e-11, 1.28787e-06, 0.0434919
 21720, 744, 0.9725, 3.37665e-11, 1.35066e-06, 0.0434918
 21750, 745, 0.9725, 3.54094e-11, 1.41638e-06, 0.0434917
 21780, 746, 0.9725, 3.71288e-11, 1.48515e-06, 0.0434918
 21810, 747, 0.9725, 3.89281e-11, 1.55712e-06, 0.0434918
 21840, 748, 0.9725, 4.08107e-11, 1.63243e-06, 0.0434919
 21870, 749, 0.9725, 4.27805e-11, 1.71122e-06, 0.0434918
 21900, 750, 0.9725, 4.48412e-11, 1.79365e-06, 0.0434918
 21930, 751, 0.9725, 4.69968e-11, 1.87987e-06, 0.0434918
 21960, 752, 0.9725, 4.92516e-11, 1.97006e-06, 0.0434918
 21990, 753, 0.9725, 5.16098e-11, 2.06439e-06, 0.0434917
 22020, 754, 0.9725, 5.4076e-11, 2.16304e-06, 0.0434918
 22050, 755, 0.9725, 5.66549e-11, 2.2662e-06, 0.0434918
 22080, 756, 0.9725, 5.93514e-11, 2.37406e-06, 0.0434919
 22110, 757, 0.9725, 6.21707e-11, 2.48683e-06, 0.0434918
 22140, 758, 0.9725, 6.5118e-11, 2.60472e-06, 0.0434918
 22170, 759, 0.9725, 6.81989e-11, 2.72796e-06, 0.0434918
 22200, 760, 0.9725, 7.14192e-11, 2.85677e-06, 0.0434918
 22230, 761, 0.9725, 7.47849e-11, 2.99139e-06, 0.0434918
 22260, 762, 0.9725, 7.83022e-11, 3.13209e-06, 0.0434918
 22290, 763, 0.9725, 8.19776e-11, 3.27911e-06, 0.0434916
 22320, 764, 0.9725, 8.5818e-11, 3.43272e-06, 0.0434918
 22350, 765, 0.9725, 8.98304e-11, 3.59322e-06, 0.0434918
 22380, 766, 0.9725, 9.40221e-11, 3.76089e-06, 0.0434919
 22410, 767, 0.9725, 9.84008e-11, 3.93603e-06, 0.0434917
 22440, 768, 0.9725, 1.02974e-10, 4.11898e-06, 0.0434918
 22470, 769, 0.9725, 1.07751e-10, 4.31005e-06, 0.0434918
 22500, 770, 0.9725, 1.1274e-10, 4.50959e-06, 0.0434917
 22530, 771, 0.9725, 1.17949e-10, 4.71796e-06, 0.0434919
 22560, 772, 0.9725, 1.23388e-10, 4.93554e-06, 0.0434918
 22590, 773, 0.9725, 1.29067e-10, 5.1627e-06, 0.0434918
 22620, 774, 0.9725, 1.34996e-10, 5.39985e-06, 0.0434919
 22650, 775, 0.9725, 1.41185e-10, 5.64741e-06, 0.0434919
 22680, 776, 0.9725, 1.47646e-10, 5.90582e-06, 0.0434918
 22710, 777, 0.9725, 1.54388e-10, 6.17553e-06, 0.0434919
 22740, 778, 0.9725, 1.61425e-10, 6.457e-06, 0.0434918
 22770, 779, 0.9725, 1.68768e-10, 6.75073e-06, 0.0434918
 22800, 780, 0.9725, 1.76431e-10, 7.05723e-06, 0.0434918
 22830, 781, 0.9725, 1.84426e-10, 7.37702e-06, 0.0434919
 22860, 782, 0.9725, 1.92766e-10, 7.71066e-06, 0.0434919
 22890, 783, 0.9725, 2.01468e-10, 8.05871e-06, 0.043492
 22920, 784, 0.9725, 2.10544e-10, 8.42176e-06, 0.0434918
 22950, 785, 0.9725, 2.20011e-10, 8.80044e-06, 0.0434919
 22980, 786, 0.9725, 2.29884e-10, 9.19538e-06, 0.0434919
 23010, 787, 0.9725, 2.40181e-10, 9.60725e-06, 0.0434919
 23040, 788, 0.9725, 2.50918e-10, 1.00367e-05, 0.0434918
 23070, 789, 0.9725, 2.62114e-10, 1.04846e-05, 0.0434919
 23100, 790, 0.9725, 2.73787e-10, 1.09515e-05, 0.0434919
 23130, 791, 0.9725, 2.85956e-10, 1.14382e-05, 0.0434919
 23160, 792, 0.9725, 2.98642e-10, 1.19457e-05, 0.0434919
 23190, 793, 0.9725, 3.11865e-10, 1.24746e-05, 0.0434918
 23220, 794, 0.9725, 3.25646e-10, 1.30259e-05, 0.0434918
 23250, 795, 0.9725, 3.4001e-10, 1.36004e-05, 0.0434919
 23280, 796, 0.9725, 3.54978e-10, 1.41991e-05, 0.0434918
 23310, 797, 0.9725, 3.70576e-10, 1.4823e-05, 0.0434919
 23340, 798, 0.9725, 3.86828e-10, 1.54731e-05, 0.0434919
 23370, 799, 0.9725, 4.0376e-10, 1.61504e-05, 0.0434919
 23400, 800, 0.9725, 4.214e-10, 1.6856e-05, 0.0434919