File: examples/Birch_TGA_Example/Work/Cone_x4pclkgu/birch_tga_1step_20_tga.csv
s,C,g/g,1/s,W/g,W/g
Time,Temp,Mass,MLR,MCC,DSC
 3, 21.0014, 0.999999, 2.18432e-07, 0.0000000E+000, 0.459601
 6, 22.0014, 0.999999, 2.50874e-07, 0.0000000E+000, 0.459673
 9, 23.0014, 0.999998, 2.87863e-07, 0.0000000E+000, 0.459756
 12, 24.0014, 0.999997, 3.29998e-07, 0.0000000E+000, 0.45985
 15, 25.0014, 0.999996, 3.77948e-07, 0.0000000E+000, 0.459957
 18, 26.0014, 0.999995, 4.32468e-07, 0.0000000E+000, 0.460078
 21, 27.0014, 0.999993, 4.94401e-07, 0.0000000E+000, 0.460217
 24, 28.0014, 0.999992, 5.64693e-07, 0.0000000E+000, 0.460373
 27, 29.0014, 0.99999, 6.44398e-07, 0.0000000E+000, 0.460551
 30, 30.0014, 0.999988, 7.34698e-07, 0.0000000E+000, 0.460753
 33, 31.0014, 0.999985, 8.36909e-07, 0.0000000E+000, 0.460981
 36, 32.0014, 0.999983, 9.52499e-07, 0.0000000E+000, 0.461239
 39, 33.0014, 0.99998, 1.08311e-06, 0.0000000E+000, 0.46153
 42, 34.0014, 0.999976, 1.23055e-06, 0.0000000E+000, 0.461859
 45, 35.0014, 0.999972, 1.39685e-06, 0.0000000E+000, 0.46223
 48, 36.0014, 0.999968, 1.58425e-06, 0.0000000E+000, 0.462648
 51, 37.0014, 0.999963, 1.79525e-06, 0.0000000E+000, 0.463118
 54, 38.0014, 0.999957, 2.0326e-06, 0.0000000E+000, 0.463647
 57, 39.0014, 0.999951, 2.29936e-06, 0.0000000E+000, 0.464242
 60, 40.0014, 0.999943, 2.59888e-06, 0.0000000E+000, 0.464909
 63, 41.0014, 0.999935, 2.9349e-06, 0.0000000E+000, 0.465658
 66, 42.0014, 0.999926, 3.31151e-06, 0.0000000E+000, 0.466497
 69, 43.0014, 0.999915, 3.73321e-06, 0.0000000E+000, 0.467437
 72, 44.0014, 0.999903, 4.20496e-06, 0.0000000E+000, 0.468488
 75, 45.0014, 0.99989, 4.73217e-06, 0.0000000E+000, 0.469663
 78, 46.0014, 0.999875, 5.32078e-06, 0.0000000E+000, 0.470974
 81, 47.0014, 0.999858, 5.97727e-06, 0.0000000E+000, 0.472436
 84, 48.0014, 0.999839, 6.70869e-06, 0.0000000E+000, 0.474064
 87, 49.0014, 0.999817, 7.52271e-06, 0.0000000E+000, 0.475877
 90, 50.0014, 0.999793, 8.42766e-06, 0.0000000E+000, 0.477891
 93, 51.0014, 0.999767, 9.43249e-06, 0.0000000E+000, 0.480128
 96, 52.0014, 0.999737, 1.05469e-05, 0.0000000E+000, 0.482608
 99, 53.0014, 0.999703, 1.17812e-05, 0.0000000E+000, 0.485355
 102, 54.0014, 0.999666, 1.31466e-05, 0.0000000E+000, 0.488392
 105, 55.0014, 0.999624, 1.46548e-05, 0.0000000E+000, 0.491747
 108, 56.0014, 0.999578, 1.63183e-05, 0.0000000E+000, 0.495447
 111, 57.0014, 0.999526, 1.81502e-05, 0.0000000E+000, 0.499521
 114, 58.0014, 0.999469, 2.01641e-05, 0.0000000E+000, 0.503998
 117, 59.0014, 0.999405, 2.23743e-05, 0.0000000E+000, 0.508911
 120, 60.0014, 0.999334, 2.47951e-05, 0.0000000E+000, 0.51429
 123, 61.0014, 0.999256, 2.74414e-05, 0.0000000E+000, 0.520169
 126, 62.0014, 0.999169, 3.03275e-05, 0.0000000E+000, 0.52658
 129, 63.0014, 0.999074, 3.34679e-05, 0.0000000E+000, 0.533553
 132, 64.0014, 0.998968, 3.68759e-05, 0.0000000E+000, 0.541118
 135, 65.0014, 0.998852, 4.05641e-05, 0.0000000E+000, 0.549302
 138, 66.0014, 0.998725, 4.45431e-05, 0.0000000E+000, 0.558128
 141, 67.0014, 0.998585, 4.88213e-05, 0.0000000E+000, 0.567614
 144, 68.0014, 0.998431, 5.34044e-05, 0.0000000E+000, 0.577771
 147, 69.0013, 0.998264, 5.82939e-05, 0.0000000E+000, 0.588602
 150, 70.0013, 0.998081, 6.34867e-05, 0.0000000E+000, 0.600098
 153, 71.0013, 0.997882, 6.89739e-05, 0.0000000E+000, 0.612238
 156, 72.0013, 0.997667, 7.47397e-05, 0.0000000E+000, 0.624984
 159, 73.0013, 0.997434, 8.076e-05, 0.0000000E+000, 0.638281
 162, 74.0013, 0.997182, 8.70013e-05, 0.0000000E+000, 0.652053
 165, 75.0013, 0.996911, 9.34192e-05, 0.0000000E+000, 0.666197
 168, 76.0013, 0.996621, 9.99575e-05, 0.0000000E+000, 0.680587
 171, 77.0013, 0.996312, 0.000106547, 0.0000000E+000, 0.695064
 174, 78.0013, 0.995982, 0.000113103, 0.0000000E+000, 0.709438
 177, 79.0013, 0.995633, 0.000119529, 0.0000000E+000, 0.72349
 180, 80.0013, 0.995265, 0.000125711, 0.0000000E+000, 0.736963
 183, 81.0013, 0.994879, 0.000131523, 0.0000000E+000, 0.749574
 186, 82.0012, 0.994476, 0.000136825, 0.0000000E+000, 0.761007
 189, 83.0012, 0.994059, 0.000141469, 0.0000000E+000, 0.770929
 192, 84.0012, 0.993628, 0.000145297, 0.0000000E+000, 0.778987
 195, 85.0012, 0.993188, 0.000148153, 0.0000000E+000, 0.784831
 198, 86.0012, 0.992741, 0.000149884, 0.0000000E+000, 0.788117
 201, 87.0012, 0.99229, 0.000150348, 0.0000000E+000, 0.788532
 204, 88.0012, 0.99184, 0.000149424, 0.0000000E+000, 0.785809
 207, 89.0012, 0.991395, 0.000147023, 0.0000000E+000, 0.779748
 210, 90.0012, 0.990959, 0.000143092, 0.0000000E+000, 0.770241
 213, 91.0013, 0.990538, 0.00013763, 0.0000000E+000, 0.757287
 216, 92.0013, 0.990135, 0.000130688, 0.0000000E+000, 0.741012
 219, 93.0013, 0.989755, 0.000122381, 0.0000000E+000, 0.72168
 222, 94.0013, 0.989402, 0.000112885, 0.0000000E+000, 0.699693
 225, 95.0013, 0.989079, 0.000102434, 0.0000000E+000, 0.67559
 228, 96.0013, 0.988788, 9.13137e-05, 0.0000000E+000, 0.65002
 231, 97.0013, 0.988531, 7.98486e-05, 0.0000000E+000, 0.623717
 234, 98.0013, 0.988309, 6.8381e-05, 0.0000000E+000, 0.597458
 237, 99.0014, 0.988121, 5.7251e-05, 0.0000000E+000, 0.572012
 240, 100.001, 0.987965, 4.67726e-05, 0.0000000E+000, 0.548086
 243, 101.001, 0.98784, 3.72118e-05, 0.0000000E+000, 0.526279
 246, 102.001, 0.987741, 2.87671e-05, 0.0000000E+000, 0.507037
 249, 103.001, 0.987666, 2.15582e-05, 0.0000000E+000, 0.490623
 252, 104.001, 0.98761, 1.56215e-05, 0.0000000E+000, 0.477116
 255, 105.001, 0.987571, 1.09153e-05, 0.0000000E+000, 0.466416
 258, 106.001, 0.987544, 7.33278e-06, 0.0000000E+000, 0.458275
 261, 107.001, 0.987526, 4.72103e-06, 0.0000000E+000, 0.452343
 264, 108.001, 0.987515, 2.90306e-06, 0.0000000E+000, 0.448216
 267, 109.001, 0.987508, 1.69873e-06, 0.0000000E+000, 0.445483
 270, 110.001, 0.987504, 9.42158e-07, 0.0000000E+000, 0.443767
 273, 111.001, 0.987502, 4.9318e-07, 0.0000000E+000, 0.442749
 276, 112.001, 0.987501, 2.4254e-07, 0.0000000E+000, 0.44218
 279, 113.001, 0.9875, 1.11512e-07, 0.0000000E+000, 0.441883
 282, 114.001, 0.9875, 4.76801e-08, 0.0000000E+000, 0.441739
 285, 115.001, 0.9875, 1.88524e-08, 0.0000000E+000, 0.441674
 288, 116.001, 0.9875, 6.85133e-09, 0.0000000E+000, 0.441646
 291, 117.001, 0.9875, 2.27371e-09, 0.0000000E+000, 0.441636
 294, 118.001, 0.9875, 6.84247e-10, 0.0000000E+000, 0.441632
 297, 119.001, 0.9875, 1.85337e-10, 0.0000000E+000, 0.441631
 300, 120.001, 0.9875, 4.4823e-11, 0.0000000E+000, 0.441631
 303, 121.001, 0.9875, 9.59621e-12, 0.0000000E+000, 0.441631
 306, 122.001, 0.9875, 1.80205e-12, 0.0000000E+000, 0.441631
 309, 123.001, 0.9875, 2.93922e-13, 0.0000000E+000, 0.441631
 312, 124.001, 0.9875, 4.12021e-14, 0.0000000E+000, 0.441631
 315, 125.001, 0.9875, 4.90839e-15, 0.0000000E+000, 0.441631
 318, 126.001, 0.9875, 4.90975e-16, 0.0000000E+000, 0.441631
 321, 127.001, 0.9875, 4.07088e-17, 0.0000000E+000, 0.441631
 324, 128.001, 0.9875, 2.75961e-18, 0.0000000E+000, 0.441631
 327, 129.001, 0.9875, 1.50712e-19, 0.0000000E+000, 0.441631
 330, 130.001, 0.9875, 6.52783e-21, 1.40703e-38, 0.441631
 333, 131.001, 0.9875, 2.20505e-22, 1.90304e-38, 0.441631
 336, 132.001, 0.9875, 5.70575e-24, 2.57006e-38, 0.441631
 339, 133.001, 0.9875, 1.10954e-25, 3.46574e-38, 0.441631
 342, 134.001, 0.9875, 1.5887e-27, 4.66671e-38, 0.441631
 345, 135.001, 0.9875, 1.63886e-29, 6.2747e-38, 0.441631
 348, 136.001, 0.9875, 1.19e-31, 8.42454e-38, 0.441631
 351, 137.001, 0.9875, 5.93307e-34, 1.12947e-37, 0.441631
 354, 138.001, 0.9875, 1.97812e-36, 1.51212e-37, 0.441631
 357, 139.001, 0.9875, 0.0000000E+000, 2.02153e-37, 0.441631
 360, 140.001, 0.9875, 0.0000000E+000, 2.69877e-37, 0.441631
 363, 141.001, 0.9875, 0.0000000E+000, 3.59786e-37, 0.441631
 366, 142.001, 0.9875, 0.0000000E+000, 4.78985e-37, 0.441631
 369, 143.001, 0.9875, 0.0000000E+000, 6.36798e-37, 0.441631
 372, 144.001, 0.9875, 0.0000000E+000, 8.45451e-37, 0.441631
 375, 145.001, 0.9875, 0.0000000E+000, 1.12095e-36, 0.441631
 378, 146.001, 0.9875, 0.0000000E+000, 1.48423e-36, 0.441631
 381, 147.001, 0.9875, 0.0000000E+000, 1.96261e-36, 0.441631
 384, 148.001, 0.9875, 0.0000000E+000, 2.59174e-36, 0.441631
 387, 149.001, 0.9875, 0.0000000E+000, 3.41803e-36, 0.441631
 390, 150.001, 0.9875, 0.0000000E+000, 4.50187e-36, 0.441631
 393, 151.001, 0.9875, 0.0000000E+000, 5.9217e-36, 0.441631
 396, 152.001, 0.9875, 0.0000000E+000, 7.77928e-36, 0.441631
 399, 153.001, 0.9875, 0.0000000E+000, 1.02065e-35, 0.441631
 402, 154.001, 0.9875, 0.0000000E+000, 1.3374e-35, 0.441631
 405, 155.001, 0.9875, 0.0000000E+000, 1.75024e-35, 0.441631
 408, 156.001, 0.9875, 0.0000000E+000, 2.28764e-35, 0.441631
 411, 157.001, 0.9875, 0.0000000E+000, 2.98634e-35, 0.441631
 414, 158.001, 0.9875, 0.0000000E+000, 3.89362e-35, 0.441631
 417, 159.001, 0.9875, 0.0000000E+000, 5.07031e-35, 0.441631
 420, 160.001, 0.9875, 0.0000000E+000, 6.59456e-35, 0.441631
 423, 161.001, 0.9875, 0.0000000E+000, 8.56666e-35, 0.441631
 426, 162.001, 0.9875, 0.0000000E+000, 1.11151e-34, 0.441631
 429, 163.001, 0.9875, 0.0000000E+000, 1.44045e-34, 0.441631
 432, 164.001, 0.9875, 0.0000000E+000, 1.86453e-34, 0.441631
 435, 165.001, 0.9875, 0.0000000E+000, 2.41061e-34, 0.441631
 438, 166.001, 0.9875, 0.0000000E+000, 3.11298e-34, 0.441631
 441, 167.001, 0.9875, 0.0000000E+000, 4.01534e-34, 0.441631
 444, 168.001, 0.9875, 1.29332e-38, 5.17328e-34, 0.441631
 447, 169.001, 0.9875, 1.66438e-38, 6.65752e-34, 0.441631
 450, 170.001, 0.9875, 2.13946e-38, 8.55785e-34, 0.441631
 453, 171.001, 0.9875, 2.74704e-38, 1.09882e-33, 0.441631
 456, 172.001, 0.9875, 3.52321e-38, 1.40928e-33, 0.441631
 459, 173.001, 0.9875, 4.51364e-38, 1.80546e-33, 0.441631
 462, 174.001, 0.9875, 5.7761e-38, 2.31044e-33, 0.441631
 465, 175.001, 0.9875, 7.38353e-38, 2.95341e-33, 0.441631
 468, 176.001, 0.9875, 9.42799e-38, 3.77119e-33, 0.441631
 471, 177.001, 0.9875, 1.20255e-37, 4.81019e-33, 0.441631
 474, 178.001, 0.9875, 1.5322e-37, 6.12881e-33, 0.441631
 477, 179.001, 0.9875, 1.95014e-37, 7.80056e-33, 0.441631
 480, 180.001, 0.9875, 2.47943e-37, 9.91773e-33, 0.441631
 483, 181.001, 0.9875, 3.14905e-37, 1.25962e-32, 0.441631
 486, 182.001, 0.9875, 3.99532e-37, 1.59813e-32, 0.441631
 489, 183.001, 0.9875, 5.06371e-37, 2.02549e-32, 0.441631
 492, 184.001, 0.9875, 6.41117e-37, 2.56447e-32, 0.441631
 495, 185.001, 0.9875, 8.10882e-37, 3.24353e-32, 0.441631
 498, 186.001, 0.9875, 1.02455e-36, 4.0982e-32, 0.441631
 501, 187.001, 0.9875, 1.29321e-36, 5.17283e-32, 0.441631
 504, 188.001, 0.9875, 1.63066e-36, 6.52265e-32, 0.441631
 507, 189.001, 0.9875, 2.05411e-36, 8.21645e-32, 0.441631
 510, 190.001, 0.9875, 2.58495e-36, 1.03398e-31, 0.441631
 513, 191.001, 0.9875, 3.24974e-36, 1.2999e-31, 0.441631
 516, 192.001, 0.9875, 4.08149e-36, 1.63259e-31, 0.441631
 519, 193.001, 0.9875, 5.1211e-36, 2.04844e-31, 0.441631
 522, 194.001, 0.9875, 6.41928e-36, 2.56771e-31, 0.441631
 525, 195.001, 0.9875, 8.03879e-36, 3.21552e-31, 0.441631
 528, 196.001, 0.9875, 1.00572e-35, 4.02289e-31, 0.441631
 531, 197.001, 0.9875, 1.25705e-35, 5.02819e-31, 0.441631
 534, 198.001, 0.9875, 1.56969e-35, 6.27876e-31, 0.441631
 537, 199.001, 0.9875, 1.95825e-35, 7.833e-31, 0.441631
 540, 200.001, 0.9875, 2.44071e-35, 9.76283e-31, 0.441631
 543, 201.001, 0.9875, 3.0392e-35, 1.21568e-30, 0.441631
 546, 202.001, 0.9875, 3.78097e-35, 1.51239e-30, 0.441631
 549, 203.001, 0.9875, 4.69946e-35, 1.87979e-30, 0.441631
 552, 204.001, 0.9875, 5.83576e-35, 2.3343e-30, 0.441631
 555, 205.001, 0.9875, 7.24025e-35, 2.8961e-30, 0.441631
 558, 206.001, 0.9875, 8.97466e-35, 3.58987e-30, 0.441631
 561, 207.001, 0.9875, 1.11146e-34, 4.44585e-30, 0.441631
 564, 208.001, 0.9875, 1.37526e-34, 5.50104e-30, 0.441631
 567, 209.001, 0.9875, 1.70017e-34, 6.80067e-30, 0.441631
 570, 210.001, 0.9875, 2.09999e-34, 8.39995e-30, 0.441631
 573, 211.001, 0.9875, 2.59157e-34, 1.03663e-29, 0.441631
 576, 212.001, 0.9875, 3.19546e-34, 1.27818e-29, 0.441631
 579, 213.001, 0.9875, 3.93667e-34, 1.57467e-29, 0.441631
 582, 214.001, 0.9875, 4.84565e-34, 1.93826e-29, 0.441631
 585, 215.001, 0.9875, 5.95945e-34, 2.38378e-29, 0.441631
 588, 216.001, 0.9875, 7.32307e-34, 2.92923e-29, 0.441631
 591, 217.001, 0.9875, 8.99114e-34, 3.59645e-29, 0.441631
 594, 218.001, 0.9875, 1.10299e-33, 4.41198e-29, 0.441631
 597, 219.001, 0.9875, 1.35198e-33, 5.40793e-29, 0.441631
 600, 220.001, 0.9875, 1.65581e-33, 6.62324e-29, 0.441631
 603, 221.001, 0.9875, 2.02625e-33, 8.10501e-29, 0.441631
 606, 222.001, 0.9875, 2.47755e-33, 9.9102e-29, 0.441631
 609, 223.001, 0.9875, 3.02691e-33, 1.21076e-28, 0.441631
 612, 224.001, 0.9875, 3.6951e-33, 1.47804e-28, 0.441631
 615, 225.001, 0.9875, 4.50718e-33, 1.80287e-28, 0.441631
 618, 226.001, 0.9875, 5.49337e-33, 2.19735e-28, 0.441631
 621, 227.001, 0.9875, 6.69004e-33, 2.67602e-28, 0.441631
 624, 228.001, 0.9875, 8.14098e-33, 3.25639e-28, 0.441631
 627, 229.001, 0.9875, 9.89887e-33, 3.95955e-28, 0.441631
 630, 230.001, 0.9875, 1.2027e-32, 4.81079e-28, 0.441631
 633, 231.001, 0.9875, 1.46013e-32, 5.84053e-28, 0.441631
 636, 232.001, 0.9875, 1.77131e-32, 7.08524e-28, 0.441631
 639, 233.001, 0.9875, 2.14716e-32, 8.58866e-28, 0.441631
 642, 234.001, 0.9875, 2.6008e-32, 1.04032e-27, 0.441631
 645, 235.001, 0.9875, 3.14789e-32, 1.25916e-27, 0.441631
 648, 236.001, 0.9875, 3.80722e-32, 1.52289e-27, 0.441631
 651, 237.001, 0.9875, 4.60121e-32, 1.84048e-27, 0.441631
 654, 238.001, 0.9875, 5.55666e-32, 2.22266e-27, 0.441631
 657, 239.001, 0.9875, 6.70557e-32, 2.68223e-27, 0.441631
 660, 240.001, 0.9875, 8.08611e-32, 3.23445e-27, 0.441631
 663, 241.001, 0.9875, 9.74378e-32, 3.89751e-27, 0.441631
 666, 242.001, 0.9875, 1.17328e-31, 4.69311e-27, 0.441631
 669, 243.001, 0.9875, 1.41176e-31, 5.64705e-27, 0.441631
 672, 244.001, 0.9875, 1.69751e-31, 6.79003e-27, 0.441631
 675, 245.001, 0.9875, 2.03964e-31, 8.15854e-27, 0.441631
 678, 246.001, 0.9875, 2.44899e-31, 9.79594e-27, 0.441631
 681, 247.001, 0.9875, 2.93842e-31, 1.17537e-26, 0.441631
 684, 248.001, 0.9875, 3.52321e-31, 1.40929e-26, 0.441631
 687, 249.001, 0.9875, 4.22145e-31, 1.68858e-26, 0.441631
 690, 250.001, 0.9875, 5.05457e-31, 2.02183e-26, 0.441631
 693, 251.001, 0.9875, 6.04795e-31, 2.41918e-26, 0.441631
 696, 252.001, 0.9875, 7.23162e-31, 2.89265e-26, 0.441631
 699, 253.001, 0.9875, 8.64108e-31, 3.45643e-26, 0.441631
 702, 254.001, 0.9875, 1.03183e-30, 4.12731e-26, 0.441631
 705, 255.001, 0.9875, 1.23127e-30, 4.92509e-26, 0.441631
 708, 256.001, 0.9875, 1.46829e-30, 5.87315e-26, 0.441631
 711, 257.001, 0.9875, 1.74976e-30, 6.99905e-26, 0.441631
 714, 258.001, 0.9875, 2.08382e-30, 8.3353e-26, 0.441631
 717, 259.001, 0.9875, 2.48003e-30, 9.92014e-26, 0.441631
 720, 260.001, 0.9875, 2.94965e-30, 1.17986e-25, 0.441631
 723, 261.001, 0.9875, 3.50592e-30, 1.40237e-25, 0.441631
 726, 262.001, 0.9875, 4.1644e-30, 1.66576e-25, 0.441631
 729, 263.001, 0.9875, 4.94338e-30, 1.97735e-25, 0.441631
 732, 264.001, 0.9875, 5.86433e-30, 2.34573e-25, 0.441631
 735, 265.001, 0.9875, 6.95244e-30, 2.78097e-25, 0.441631
 738, 266.001, 0.9875, 8.23723e-30, 3.29489e-25, 0.441631
 741, 267.001, 0.9875, 9.75334e-30, 3.90134e-25, 0.441631
 744, 268.001, 0.9875, 1.15413e-29, 4.61651e-25, 0.441631
 747, 269.001, 0.9875, 1.36485e-29, 5.4594e-25, 0.441631
 750, 270.001, 0.9875, 1.61305e-29, 6.4522e-25, 0.441631
 753, 271.001, 0.9875, 1.90521e-29, 7.62086e-25, 0.441631
 756, 272.001, 0.9875, 2.24892e-29, 8.99569e-25, 0.441631
 759, 273.001, 0.9875, 2.65303e-29, 1.06121e-24, 0.441631
 762, 274.001, 0.9875, 3.12785e-29, 1.25114e-24, 0.441631
 765, 275.001, 0.9875, 3.68545e-29, 1.47418e-24, 0.441631
 768, 276.001, 0.9875, 4.33985e-29, 1.73594e-24, 0.441631
 771, 277.001, 0.9875, 5.10741e-29, 2.04297e-24, 0.441631
 774, 278.001, 0.9875, 6.00718e-29, 2.40287e-24, 0.441631
 777, 279.001, 0.9875, 7.06131e-29, 2.82452e-24, 0.441631
 780, 280.001, 0.9875, 8.29556e-29, 3.31822e-24, 0.441631
 783, 281.001, 0.9875, 9.73988e-29, 3.89595e-24, 0.441631
 786, 282.001, 0.9875, 1.14291e-28, 4.57162e-24, 0.441631
 789, 283.001, 0.9875, 1.34035e-28, 5.36139e-24, 0.441631
 792, 284.001, 0.9875, 1.571e-28, 6.284e-24, 0.441631
 795, 285.001, 0.9875, 1.8403e-28, 7.36119e-24, 0.441631
 798, 286.001, 0.9875, 2.15454e-28, 8.61814e-24, 0.441631
 801, 287.001, 0.9875, 2.52101e-28, 1.00841e-23, 0.441631
 804, 288.001, 0.9875, 2.94818e-28, 1.17927e-23, 0.441631
 807, 289.001, 0.9875, 3.4458e-28, 1.37832e-23, 0.441631
 810, 290.001, 0.9875, 4.02518e-28, 1.61007e-23, 0.441631
 813, 291.001, 0.9875, 4.6994e-28, 1.87976e-23, 0.441631
 816, 292.001, 0.9875, 5.48353e-28, 2.19341e-23, 0.441631
 819, 293.001, 0.9875, 6.39503e-28, 2.55801e-23, 0.441631
 822, 294.001, 0.9875, 7.45399e-28, 2.98159e-23, 0.441631
 825, 295.001, 0.9875, 8.68361e-28, 3.47345e-23, 0.441631
 828, 296.001, 0.9875, 1.01107e-27, 4.04426e-23, 0.441631
 831, 297.001, 0.9875, 1.17659e-27, 4.70638e-23, 0.441631
 834, 298.001, 0.9875, 1.3685e-27, 5.47398e-23, 0.441631
 837, 299.001, 0.9875, 1.59085e-27, 6.36342e-23, 0.441631
 840, 300.001, 0.9875, 1.84837e-27, 7.39349e-23, 0.441631
 843, 301.001, 0.9875, 2.14645e-27, 8.58582e-23, 0.441631
 846, 302.001, 0.9875, 2.49131e-27, 9.96525e-23, 0.441631
 849, 303.001, 0.9875, 2.89008e-27, 1.15603e-22, 0.441631
 852, 304.001, 0.9875, 3.35095e-27, 1.34038e-22, 0.441631
 855, 305.001, 0.9875, 3.88333e-27, 1.55333e-22, 0.441631
 858, 306.001, 0.9875, 4.49799e-27, 1.7992e-22, 0.441631
 861, 307.001, 0.9875, 5.20731e-27, 2.08292e-22, 0.441631
 864, 308.001, 0.9875, 6.02545e-27, 2.41018e-22, 0.441631
 867, 309.001, 0.9875, 6.96863e-27, 2.78745e-22, 0.441631
 870, 310.001, 0.9875, 8.05544e-27, 3.22218e-22, 0.441631
 873, 311.001, 0.9875, 9.30712e-27, 3.72285e-22, 0.441631
 876, 312.001, 0.9875, 1.0748e-26, 4.29919e-22, 0.441631
 879, 313.001, 0.9875, 1.24058e-26, 4.96233e-22, 0.441631
 882, 314.001, 0.9875, 1.43124e-26, 5.72495e-22, 0.441631
 885, 315.001, 0.9875, 1.65039e-26, 6.60156e-22, 0.441631
 888, 316.001, 0.9875, 1.90218e-26, 7.60872e-22, 0.441631
 891, 317.001, 0.9875, 2.19133e-26, 8.76532e-22, 0.441631
 894, 318.001, 0.9875, 2.52322e-26, 1.00929e-21, 0.441631
 897, 319.001, 0.9875, 2.904e-26, 1.1616e-21, 0.441631
 900, 320.001, 0.9875, 3.34066e-26, 1.33627e-21, 0.441631
 903, 321.001, 0.9875, 3.84117e-26, 1.53647e-21, 0.441631
 906, 322.001, 0.9875, 4.41459e-26, 1.76584e-21, 0.441631
 909, 323.001, 0.9875, 5.07124e-26, 2.0285e-21, 0.441631
 912, 324.001, 0.9875, 5.82287e-26, 2.32915e-21, 0.441631
 915, 325.001, 0.9875, 6.6828e-26, 2.67312e-21, 0.441631
 918, 326.001, 0.9875, 7.66621e-26, 3.06648e-21, 0.441631
 921, 327.001, 0.9875, 8.79031e-26, 3.51612e-21, 0.441631
 924, 328.001, 0.9875, 1.00746e-25, 4.02986e-21, 0.441631
 927, 329.001, 0.9875, 1.15414e-25, 4.61656e-21, 0.441631
 930, 330.001, 0.9875, 1.32158e-25, 5.2863e-21, 0.441631
 933, 331.001, 0.9875, 1.51262e-25, 6.05049e-21, 0.441631
 936, 332.001, 0.9875, 1.73051e-25, 6.92206e-21, 0.441631
 939, 333.001, 0.9875, 1.97892e-25, 7.91566e-21, 0.441631
 942, 334.001, 0.9875, 2.26197e-25, 9.04789e-21, 0.441631
 945, 335.001, 0.9875, 2.58438e-25, 1.03375e-20, 0.441631
 948, 336.001, 0.9875, 2.95145e-25, 1.18058e-20, 0.441631
 951, 337.001, 0.9875, 3.36919e-25, 1.34767e-20, 0.441631
 954, 338.001, 0.9875, 3.84439e-25, 1.53775e-20, 0.441631
 957, 339.001, 0.9875, 4.38472e-25, 1.75389e-20, 0.441631
 960, 340.001, 0.9875, 4.99885e-25, 1.99954e-20, 0.441631
 963, 341.001, 0.9875, 5.69656e-25, 2.27862e-20, 0.441631
 966, 342.001, 0.9875, 6.4889e-25, 2.59556e-20, 0.441631
 969, 343.001, 0.9875, 7.38833e-25, 2.95533e-20, 0.441631
 972, 344.001, 0.9875, 8.40888e-25, 3.36355e-20, 0.441631
 975, 345.001, 0.9875, 9.5664e-25, 3.82656e-20, 0.441631
 978, 346.001, 0.9875, 1.08787e-24, 4.35149e-20, 0.441631
 981, 347.001, 0.9875, 1.23659e-24, 4.94638e-20, 0.441631
 984, 348.001, 0.9875, 1.40507e-24, 5.62027e-20, 0.441631
 987, 349.001, 0.9875, 1.59584e-24, 6.38336e-20, 0.441631
 990, 350.001, 0.9875, 1.81177e-24, 7.24709e-20, 0.441631
 993, 351.001, 0.9875, 2.05609e-24, 8.22435e-20, 0.441631
 996, 352.001, 0.9875, 2.3324e-24, 9.32961e-20, 0.441631
 999, 353.001, 0.9875, 2.64479e-24, 1.05791e-19, 0.441631
 1002, 354.001, 0.9875, 2.99781e-24, 1.19912e-19, 0.441631
 1005, 355.001, 0.9875, 3.39659e-24, 1.35864e-19, 0.441631
 1008, 356.001, 0.9875, 3.8469e-24, 1.53876e-19, 0.441631
 1011, 357.001, 0.9875, 4.35519e-24, 1.74207e-19, 0.441631
 1014, 358.001, 0.9875, 4.92869e-24, 1.97148e-19, 0.441631
 1017, 359.001, 0.9875, 5.57554e-24, 2.23021e-19, 0.441631
 1020, 360.001, 0.9875, 6.30482e-24, 2.52193e-19, 0.441631
 1023, 361.001, 0.9875, 7.12672e-24, 2.85069e-19, 0.441631
 1026, 362.001, 0.9875, 8.05267e-24, 3.22107e-19, 0.441631
 1029, 363.001, 0.9875, 9.09542e-24, 3.63817e-19, 0.441631
 1032, 364.001, 0.9875, 1.02693e-23, 4.10771e-19, 0.441631
 1035, 365.001, 0.9875, 1.15902e-23, 4.63609e-19, 0.441631
 1038, 366.001, 0.9875, 1.30761e-23, 5.23045e-19, 0.441631
 1041, 367.001, 0.9875, 1.4747e-23, 5.89879e-19, 0.441631
 1044, 368.001, 0.9875, 1.66251e-23, 6.65004e-19, 0.441631
 1047, 369.001, 0.9875, 1.87354e-23, 7.49416e-19, 0.441631
 1050, 370.001, 0.9875, 2.11057e-23, 8.44229e-19, 0.441631
 1053, 371.001, 0.9875, 2.37671e-23, 9.50685e-19, 0.441631
 1056, 372.001, 0.9875, 2.67543e-23, 1.07017e-18, 0.441631
 1059, 373.001, 0.9875, 3.01059e-23, 1.20423e-18, 0.441631
 1062, 374.001, 0.9875, 3.38649e-23, 1.3546e-18, 0.441631
 1065, 375.001, 0.9875, 3.80796e-23, 1.52318e-18, 0.441631
 1068, 376.001, 0.9875, 4.28032e-23, 1.71213e-18, 0.441631
 1071, 377.001, 0.9875, 4.80956e-23, 1.92382e-18, 0.441631
 1074, 378.001, 0.9875, 5.40229e-23, 2.16092e-18, 0.441631
 1077, 379.001, 0.9875, 6.06591e-23, 2.42636e-18, 0.441631
 1080, 380.001, 0.9875, 6.80863e-23, 2.72345e-18, 0.441631
 1083, 381.001, 0.9875, 7.6396e-23, 3.05584e-18, 0.441631
 1086, 382.001, 0.9875, 8.56897e-23, 3.42759e-18, 0.441631
 1089, 383.001, 0.9875, 9.60803e-23, 3.84321e-18, 0.441631
 1092, 384.001, 0.9875, 1.07693e-22, 4.30774e-18, 0.441631
 1095, 385.001, 0.9875, 1.20668e-22, 4.82673e-18, 0.441631
 1098, 386.001, 0.9875, 1.3516e-22, 5.40639e-18, 0.441631
 1101, 387.001, 0.9875, 1.5134e-22, 6.05358e-18, 0.441631
 1104, 388.001, 0.9875, 1.69398e-22, 6.77593e-18, 0.441631
 1107, 389.001, 0.9875, 1.89547e-22, 7.58189e-18, 0.441631
 1110, 390.001, 0.9875, 2.12021e-22, 8.48084e-18, 0.441631
 1113, 391.001, 0.9875, 2.37079e-22, 9.48318e-18, 0.441631
 1116, 392.001, 0.9875, 2.6501e-22, 1.06004e-17, 0.441631
 1119, 393.001, 0.9875, 2.96133e-22, 1.18453e-17, 0.441631
 1122, 394.001, 0.9875, 3.308e-22, 1.3232e-17, 0.441631
 1125, 395.001, 0.9875, 3.69404e-22, 1.47761e-17, 0.441631
 1128, 396.001, 0.9875, 4.12376e-22, 1.6495e-17, 0.441631
 1131, 397.001, 0.9875, 4.60196e-22, 1.84078e-17, 0.441631
 1134, 398.001, 0.9875, 5.13393e-22, 2.05357e-17, 0.441631
 1137, 399.001, 0.9875, 5.72553e-22, 2.29021e-17, 0.441631
 1140, 400.001, 0.9875, 6.38324e-22, 2.5533e-17, 0.441631
 1143, 401.001, 0.9875, 7.1142e-22, 2.84568e-17, 0.441631
 1146, 402.001, 0.9875, 7.92633e-22, 3.17053e-17, 0.441631
 1149, 403.001, 0.9875, 8.82834e-22, 3.53133e-17, 0.441631
 1152, 404.001, 0.9875, 9.82986e-22, 3.93194e-17, 0.441631
 1155, 405.001, 0.9875, 1.09415e-21, 4.37662e-17, 0.441631
 1158, 406.001, 0.9875, 1.21751e-21, 4.87004e-17, 0.441631
 1161, 407.001, 0.9875, 1.35435e-21, 5.41739e-17, 0.441631
 1164, 408.001, 0.9875, 1.50609e-21, 6.02437e-17, 0.441631
 1167, 409.001, 0.9875, 1.67432e-21, 6.69727e-17, 0.441631
 1170, 410.001, 0.9875, 1.86076e-21, 7.44303e-17, 0.441631
 1173, 411.001, 0.9875, 2.06732e-21, 8.26928e-17, 0.441631
 1176, 412.001, 0.9875, 2.29611e-21, 9.18442e-17, 0.441631
 1179, 413.001, 0.9875, 2.54943e-21, 1.01977e-16, 0.441631
 1182, 414.001, 0.9875, 2.82984e-21, 1.13194e-16, 0.441631
 1185, 415.001, 0.9875, 3.14015e-21, 1.25606e-16, 0.441631
 1188, 416.001, 0.9875, 3.48342e-21, 1.39337e-16, 0.441631
 1191, 417.001, 0.9875, 3.86306e-21, 1.54523e-16, 0.441631
 1194, 418.001, 0.9875, 4.2828e-21, 1.71312e-16, 0.441631
 1197, 419.001, 0.9875, 4.74672e-21, 1.89869e-16, 0.441631
 1200, 420.001, 0.9875, 5.25934e-21, 2.10374e-16, 0.441631
 1203, 421.001, 0.9875, 5.8256e-21, 2.33024e-16, 0.441631
 1206, 422.001, 0.9875, 6.45092e-21, 2.58037e-16, 0.441631
 1209, 423.001, 0.9875, 7.14128e-21, 2.85651e-16, 0.441631
 1212, 424.001, 0.9875, 7.90321e-21, 3.16128e-16, 0.441631
 1215, 425.001, 0.9875, 8.74389e-21, 3.49756e-16, 0.441631
 1218, 426.001, 0.9875, 9.6712e-21, 3.86848e-16, 0.441631
 1221, 427.001, 0.9875, 1.06938e-20, 4.27751e-16, 0.441631
 1224, 428.001, 0.9875, 1.18211e-20, 4.72843e-16, 0.441631
 1227, 429.001, 0.9875, 1.30635e-20, 5.2254e-16, 0.441631
 1230, 430.001, 0.9875, 1.44324e-20, 5.77296e-16, 0.441631
 1233, 431.001, 0.9875, 1.59402e-20, 6.37609e-16, 0.441631
 1236, 432.001, 0.9875, 1.76006e-20, 7.04024e-16, 0.441631
 1239, 433.001, 0.9875, 1.94285e-20, 7.7714e-16, 0.441631
 1242, 434.001, 0.9875, 2.14402e-20, 8.57609e-16, 0.441631
 1245, 435.001, 0.9875, 2.36537e-20, 9.46147e-16, 0.441631
 1248, 436.001, 0.9875, 2.60884e-20, 1.04354e-15, 0.441631
 1251, 437.001, 0.9875, 2.87658e-20, 1.15063e-15, 0.441631
 1254, 438.001, 0.9875, 3.17093e-20, 1.26837e-15, 0.441631
 1257, 439.001, 0.9875, 3.49444e-20, 1.39778e-15, 0.441631
 1260, 440.001, 0.9875, 3.84991e-20, 1.53996e-15, 0.441631
 1263, 441.001, 0.9875, 4.24038e-20, 1.69615e-15, 0.441631
 1266, 442.001, 0.9875, 4.6692e-20, 1.86768e-15, 0.441631
 1269, 443.001, 0.9875, 5.14e-20, 2.056e-15, 0.441631
 1272, 444.001, 0.9875, 5.65676e-20, 2.2627e-15, 0.441631
 1275, 445.001, 0.9875, 6.22381e-20, 2.48952e-15, 0.441631
 1278, 446.001, 0.9875, 6.84588e-20, 2.73835e-15, 0.441631
 1281, 447.001, 0.9875, 7.52813e-20, 3.01125e-15, 0.441631
 1284, 448.001, 0.9875, 8.2762e-20, 3.31048e-15, 0.441631
 1287, 449.001, 0.9875, 9.09622e-20, 3.63849e-15, 0.441631
 1290, 450.001, 0.9875, 9.99487e-20, 3.99795e-15, 0.441631
 1293, 451.001, 0.9875, 1.09794e-19, 4.39178e-15, 0.441631
 1296, 452.001, 0.9875, 1.20579e-19, 4.82316e-15, 0.441631
 1299, 453.001, 0.9875, 1.32388e-19, 5.29554e-15, 0.441631
 1302, 454.001, 0.9875, 1.45317e-19, 5.81269e-15, 0.441631
 1305, 455.001, 0.9875, 1.59468e-19, 6.37871e-15, 0.441631
 1308, 456.001, 0.9875, 1.74952e-19, 6.99807e-15, 0.441631
 1311, 457.001, 0.9875, 1.9189e-19, 7.67562e-15, 0.441631
 1314, 458.001, 0.9875, 2.10416e-19, 8.41663e-15, 0.441631
 1317, 459.001, 0.9875, 2.30672e-19, 9.22687e-15, 0.441631
 1320, 460.001, 0.9875, 2.52814e-19, 1.01126e-14, 0.441631
 1323, 461.001, 0.9875, 2.77013e-19, 1.10805e-14, 0.441631
 1326, 462.001, 0.9875, 3.03452e-19, 1.21381e-14, 0.441631
 1329, 463.001, 0.9875, 3.32333e-19, 1.32933e-14, 0.441631
 1332, 464.001, 0.9875, 3.63873e-19, 1.45549e-14, 0.441631
 1335, 465.001, 0.9875, 3.98308e-19, 1.59323e-14, 0.441631
 1338, 466.001, 0.9875, 4.35895e-19, 1.74358e-14, 0.441631
 1341, 467.001, 0.9875, 4.76912e-19, 1.90765e-14, 0.441631
 1344, 468.001, 0.9875, 5.21663e-19, 2.08665e-14, 0.441631
 1347, 469.001, 0.9875, 5.70476e-19, 2.2819e-14, 0.441631
 1350, 470.001, 0.9875, 6.23705e-19, 2.49482e-14, 0.441631
 1353, 471.001, 0.9875, 6.81738e-19, 2.72695e-14, 0.441631
 1356, 472.001, 0.9875, 7.44992e-19, 2.97997e-14, 0.441631
 1359, 473.001, 0.9875, 8.13922e-19, 3.25569e-14, 0.441631
 1362, 474.001, 0.9875, 8.89019e-19, 3.55607e-14, 0.441631
 1365, 475.001, 0.9875, 9.70815e-19, 3.88326e-14, 0.441631
 1368, 476.001, 0.9875, 1.05989e-18, 4.23956e-14, 0.441631
 1371, 477.001, 0.9875, 1.15686e-18, 4.62746e-14, 0.441631
 1374, 478.001, 0.9875, 1.26242e-18, 5.04967e-14, 0.441631
 1377, 479.001, 0.9875, 1.37728e-18, 5.50913e-14, 0.441631
 1380, 480.001, 0.9875, 1.50225e-18, 6.00901e-14, 0.441631
 1383, 481.001, 0.9875, 1.63818e-18, 6.55273e-14, 0.441631
 1386, 482.001, 0.9875, 1.786e-18, 7.14401e-14, 0.441631
 1389, 483.001, 0.9875, 1.94672e-18, 7.78687e-14, 0.441631
 1392, 484.001, 0.9875, 2.12141e-18, 8.48564e-14, 0.441631
 1395, 485.001, 0.9875, 2.31125e-18, 9.24502e-14, 0.441631
 1398, 486.001, 0.9875, 2.51752e-18, 1.00701e-13, 0.441631
 1401, 487.001, 0.9875, 2.74158e-18, 1.09663e-13, 0.441631
 1404, 488.001, 0.9875, 2.98491e-18, 1.19396e-13, 0.441631
 1407, 489.001, 0.9875, 3.24911e-18, 1.29964e-13, 0.441631
 1410, 490.001, 0.9875, 3.53591e-18, 1.41436e-13, 0.441631
 1413, 491.001, 0.9875, 3.84717e-18, 1.53887e-13, 0.441631
 1416, 492.001, 0.9875, 4.18492e-18, 1.67397e-13, 0.441631
 1419, 493.001, 0.9875, 4.55131e-18, 1.82052e-13, 0.441631
 1422, 494.001, 0.9875, 4.9487e-18, 1.97948e-13, 0.441631
 1425, 495.001, 0.9875, 5.37961e-18, 2.15184e-13, 0.441631
 1428, 496.001, 0.9875, 5.84677e-18, 2.33871e-13, 0.441631
 1431, 497.001, 0.9875, 6.35313e-18, 2.54125e-13, 0.441631
 1434, 498.001, 0.9875, 6.90186e-18, 2.76074e-13, 0.441631
 1437, 499.001, 0.9875, 7.49637e-18, 2.99855e-13, 0.441631
 1440, 500.001, 0.9875, 8.14035e-18, 3.25614e-13, 0.441631
 1443, 501.001, 0.9875, 8.83777e-18, 3.53511e-13, 0.441631
 1446, 502.001, 0.9875, 9.5929e-18, 3.83716e-13, 0.441631
 1449, 503.001, 0.9875, 1.04104e-17, 4.16415e-13, 0.441631
 1452, 504.001, 0.9875, 1.12951e-17, 4.51804e-13, 0.441631
 1455, 505.001, 0.9875, 1.22525e-17, 4.90099e-13, 0.441631
 1458, 506.001, 0.9875, 1.32882e-17, 5.31528e-13, 0.441631
 1461, 507.001, 0.9875, 1.44085e-17, 5.76339e-13, 0.441631
 1464, 508.001, 0.9875, 1.562e-17, 6.24799e-13, 0.441631
 1467, 509.001, 0.9875, 1.69299e-17, 6.77194e-13, 0.441631
 1470, 510.001, 0.9875, 1.83458e-17, 7.33832e-13, 0.441631
 1473, 511.001, 0.9875, 1.98761e-17, 7.95043e-13, 0.441631
 1476, 512.001, 0.9875, 2.15296e-17, 8.61185e-13, 0.441631
 1479, 513.001, 0.9875, 2.3316e-17, 9.32639e-13, 0.441631
 1482, 514.001, 0.9875, 2.52455e-17, 1.00982e-12, 0.441631
 1485, 515.001, 0.9875, 2.73291e-17, 1.09316e-12, 0.441631
 1488, 516.001, 0.9875, 2.95787e-17, 1.18315e-12, 0.441631
 1491, 517.001, 0.9875, 3.20072e-17, 1.28029e-12, 0.441631
 1494, 518.001, 0.9875, 3.4628e-17, 1.38512e-12, 0.441631
 1497, 519.001, 0.9875, 3.74561e-17, 1.49824e-12, 0.441631
 1500, 520.001, 0.9875, 4.05071e-17, 1.62028e-12, 0.441631
 1503, 521.001, 0.9875, 4.3798e-17, 1.75192e-12, 0.441631
 1506, 522.001, 0.9875, 4.73469e-17, 1.89388e-12, 0.441631
 1509, 523.001, 0.9875, 5.11734e-17, 2.04694e-12, 0.441631
 1512, 524.001, 0.9875, 5.52984e-17, 2.21194e-12, 0.441631
 1515, 525.001, 0.9875, 5.97443e-17, 2.38977e-12, 0.441631
 1518, 526.001, 0.9875, 6.45351e-17, 2.5814e-12, 0.441631
 1521, 527.001, 0.9875, 6.96966e-17, 2.78786e-12, 0.441631
 1524, 528.001, 0.9875, 7.52565e-17, 3.01026e-12, 0.441631
 1527, 529.001, 0.9875, 8.12444e-17, 3.24978e-12, 0.441631
 1530, 530.001, 0.9875, 8.7692e-17, 3.50768e-12, 0.441631
 1533, 531.001, 0.9875, 9.46333e-17, 3.78533e-12, 0.441631
 1536, 532.001, 0.9875, 1.02105e-16, 4.08419e-12, 0.441631
 1539, 533.001, 0.9875, 1.10145e-16, 4.40581e-12, 0.441631
 1542, 534.001, 0.9875, 1.18797e-16, 4.75187e-12, 0.441631
 1545, 535.001, 0.9875, 1.28104e-16, 5.12415e-12, 0.441631
 1548, 536.001, 0.9875, 1.38114e-16, 5.52456e-12, 0.441631
 1551, 537.001, 0.9875, 1.48879e-16, 5.95516e-12, 0.441631
 1554, 538.001, 0.9875, 1.60453e-16, 6.41813e-12, 0.441631
 1557, 539.001, 0.9875, 1.72895e-16, 6.91581e-12, 0.441631
 1560, 540.001, 0.9875, 1.86268e-16, 7.45073e-12, 0.441631
 1563, 541.001, 0.9875, 2.00639e-16, 8.02554e-12, 0.441631
 1566, 542.001, 0.9875, 2.16078e-16, 8.64313e-12, 0.441631
 1569, 543.001, 0.9875, 2.32664e-16, 9.30655e-12, 0.441631
 1572, 544.001, 0.9875, 2.50477e-16, 1.00191e-11, 0.441631
 1575, 545.001, 0.9875, 2.69605e-16, 1.07842e-11, 0.441631
 1578, 546.001, 0.9875, 2.90143e-16, 1.16057e-11, 0.441631
 1581, 547.001, 0.9875, 3.12188e-16, 1.24875e-11, 0.441631
 1584, 548.001, 0.9875, 3.35849e-16, 1.3434e-11, 0.441631
 1587, 549.001, 0.9875, 3.61239e-16, 1.44495e-11, 0.441631
 1590, 550.001, 0.9875, 3.88479e-16, 1.55392e-11, 0.441631
 1593, 551.001, 0.9875, 4.177e-16, 1.6708e-11, 0.441631
 1596, 552.001, 0.9875, 4.4904e-16, 1.79616e-11, 0.441631
 1599, 553.001, 0.9875, 4.82647e-16, 1.93059e-11, 0.441631
 1602, 554.001, 0.9875, 5.18678e-16, 2.07471e-11, 0.441631
 1605, 555.001, 0.9875, 5.57303e-16, 2.22921e-11, 0.441631
 1608, 556.001, 0.9875, 5.987e-16, 2.3948e-11, 0.441631
 1611, 557.001, 0.9875, 6.43061e-16, 2.57224e-11, 0.441631
 1614, 558.001, 0.9875, 6.9059e-16, 2.76236e-11, 0.441631
 1617, 559.001, 0.9875, 7.41505e-16, 2.96602e-11, 0.441631
 1620, 560.001, 0.9875, 7.96038e-16, 3.18415e-11, 0.441631
 1623, 561.001, 0.9875, 8.54436e-16, 3.41774e-11, 0.441631
 1626, 562.001, 0.9875, 9.16962e-16, 3.66785e-11, 0.441631
 1629, 563.001, 0.9875, 9.83898e-16, 3.93559e-11, 0.441631
 1632, 564.001, 0.9875, 1.05554e-15, 4.22217e-11, 0.441631
 1635, 565.001, 0.9875, 1.13221e-15, 4.52886e-11, 0.441631
 1638, 566.001, 0.9875, 1.21425e-15, 4.85701e-11, 0.441631
 1641, 567.001, 0.9875, 1.30202e-15, 5.20807e-11, 0.441631
 1644, 568.001, 0.9875, 1.39589e-15, 5.58358e-11, 0.441631
 1647, 569.001, 0.9875, 1.49629e-15, 5.98517e-11, 0.441631
 1650, 570.001, 0.9875, 1.60365e-15, 6.41459e-11, 0.441631
 1653, 571.001, 0.9875, 1.71842e-15, 6.87369e-11, 0.441631
 1656, 572.001, 0.9875, 1.84111e-15, 7.36445e-11, 0.441631
 1659, 573.001, 0.9875, 1.97224e-15, 7.88896e-11, 0.441631
 1662, 574.001, 0.9875, 2.11236e-15, 8.44945e-11, 0.441631
 1665, 575.001, 0.9875, 2.26207e-15, 9.0483e-11, 0.441631
 1668, 576.001, 0.9875, 2.42201e-15, 9.68803e-11, 0.441631
 1671, 577.001, 0.9875, 2.59283e-15, 1.03713e-10, 0.441631
 1674, 578.001, 0.9875, 2.77526e-15, 1.1101e-10, 0.441631
 1677, 579.001, 0.9875, 2.97004e-15, 1.18802e-10, 0.441631
 1680, 580.001, 0.9875, 3.178e-15, 1.2712e-10, 0.441631
 1683, 581.001, 0.9875, 3.39997e-15, 1.35999e-10, 0.441631
 1686, 582.001, 0.9875, 3.63688e-15, 1.45475e-10, 0.441631
 1689, 583.001, 0.9875, 3.88968e-15, 1.55587e-10, 0.441631
 1692, 584.001, 0.9875, 4.1594e-15, 1.66376e-10, 0.441631
 1695, 585.001, 0.9875, 4.44713e-15, 1.77885e-10, 0.441631
 1698, 586.001, 0.9875, 4.75403e-15, 1.90161e-10, 0.441631
 1701, 587.001, 0.9875, 5.08131e-15, 2.03252e-10, 0.441631
 1704, 588.001, 0.9875, 5.43028e-15, 2.17211e-10, 0.441631
 1707, 589.001, 0.9875, 5.80233e-15, 2.32093e-10, 0.441631
 1710, 590.001, 0.9875, 6.19892e-15, 2.47957e-10, 0.441631
 1713, 591.001, 0.9875, 6.62159e-15, 2.64864e-10, 0.441631
 1716, 592.001, 0.9875, 7.07201e-15, 2.82881e-10, 0.441631
 1719, 593.001, 0.9875, 7.55193e-15, 3.02077e-10, 0.441631
 1722, 594.001, 0.9875, 8.06318e-15, 3.22527e-10, 0.441631
 1725, 595.001, 0.9875, 8.60776e-15, 3.4431e-10, 0.441631
 1728, 596.001, 0.9875, 9.18772e-15, 3.67509e-10, 0.441631
 1731, 597.001, 0.9875, 9.8053e-15, 3.92212e-10, 0.441631
 1734, 598.001, 0.9875, 1.04628e-14, 4.18513e-10, 0.441631
 1737, 599.001, 0.9875, 1.11628e-14, 4.46511e-10, 0.441631
 1740, 600.001, 0.9875, 1.19078e-14, 4.76312e-10, 0.441631
 1743, 601.001, 0.9875, 1.27007e-14, 5.08026e-10, 0.441631
 1746, 602.001, 0.9875, 1.35443e-14, 5.41772e-10, 0.441631
 1749, 603.001, 0.9875, 1.44419e-14, 5.77675e-10, 0.441631
 1752, 604.001, 0.9875, 1.53967e-14, 6.15868e-10, 0.441631
 1755, 605.001, 0.9875, 1.64122e-14, 6.56489e-10, 0.441631
 1758, 606.001, 0.9875, 1.74922e-14, 6.99688e-10, 0.441631
 1761, 607.001, 0.9875, 1.86406e-14, 7.45622e-10, 0.441631
 1764, 608.001, 0.9875, 1.98614e-14, 7.94457e-10, 0.441631
 1767, 609.001, 0.9875, 2.11592e-14, 8.46368e-10, 0.441631
 1770, 610.001, 0.9875, 2.25386e-14, 9.01543e-10, 0.441631
 1773, 611.001, 0.9875, 2.40044e-14, 9.60176e-10, 0.441631
 1776, 612.001, 0.9875, 2.55619e-14, 1.02248e-09, 0.441631
 1779, 613.001, 0.9875, 2.72167e-14, 1.08867e-09, 0.441631
 1782, 614.001, 0.9875, 2.89744e-14, 1.15898e-09, 0.441631
 1785, 615.001, 0.9875, 3.08414e-14, 1.23366e-09, 0.441631
 1788, 616.001, 0.9875, 3.2824e-14, 1.31296e-09, 0.441631
 1791, 617.001, 0.9875, 3.49292e-14, 1.39717e-09, 0.441631
 1794, 618.001, 0.9875, 3.71642e-14, 1.48657e-09, 0.441631
 1797, 619.001, 0.9875, 3.95367e-14, 1.58147e-09, 0.441631
 1800, 620.001, 0.9875, 4.20549e-14, 1.6822e-09, 0.441631
 1803, 621.001, 0.9875, 4.47272e-14, 1.78909e-09, 0.441631
 1806, 622.001, 0.9875, 4.75629e-14, 1.90251e-09, 0.441631
 1809, 623.001, 0.9875, 5.05713e-14, 2.02285e-09, 0.441631
 1812, 624.001, 0.9875, 5.37628e-14, 2.15051e-09, 0.441631
 1815, 625.001, 0.9875, 5.71478e-14, 2.28591e-09, 0.441631
 1818, 626.001, 0.9875, 6.07377e-14, 2.42951e-09, 0.441631
 1821, 627.001, 0.9875, 6.45444e-14, 2.58177e-09, 0.441631
 1824, 628.001, 0.9875, 6.85804e-14, 2.74321e-09, 0.441631
 1827, 629.001, 0.9875, 7.28589e-14, 2.91436e-09, 0.441631
 1830, 630.001, 0.9875, 7.73941e-14, 3.09576e-09, 0.441631
 1833, 631.001, 0.9875, 8.22005e-14, 3.28802e-09, 0.441631
 1836, 632.001, 0.9875, 8.72938e-14, 3.49175e-09, 0.441631
 1839, 633.001, 0.9875, 9.26904e-14, 3.70762e-09, 0.441631
 1842, 634.001, 0.9875, 9.84077e-14, 3.93631e-09, 0.441631
 1845, 635.001, 0.9875, 1.04464e-13, 4.17855e-09, 0.441631
 1848, 636.001, 0.9875, 1.10878e-13, 4.43512e-09, 0.441631
 1851, 637.001, 0.9875, 1.17671e-13, 4.70683e-09, 0.441631
 1854, 638.001, 0.9875, 1.24863e-13, 4.99453e-09, 0.441631
 1857, 639.001, 0.9875, 1.32478e-13, 5.29912e-09, 0.441631
 1860, 640.001, 0.9875, 1.40539e-13, 5.62157e-09, 0.441631
 1863, 641.001, 0.9875, 1.49071e-13, 5.96286e-09, 0.441631
 1866, 642.001, 0.9875, 1.58101e-13, 6.32406e-09, 0.441631
 1869, 643.001, 0.9875, 1.67657e-13, 6.70627e-09, 0.441631
 1872, 644.001, 0.9875, 1.77767e-13, 7.11068e-09, 0.441631
 1875, 645.001, 0.9875, 1.88463e-13, 7.53851e-09, 0.441631
 1878, 646.001, 0.9875, 1.99777e-13, 7.99107e-09, 0.441631
 1881, 647.001, 0.9875, 2.11743e-13, 8.46972e-09, 0.441631
 1884, 648.001, 0.9875, 2.24398e-13, 8.97591e-09, 0.441631
 1887, 649.001, 0.9875, 2.37779e-13, 9.51116e-09, 0.441631
 1890, 650.001, 0.9875, 2.51926e-13, 1.00771e-08, 0.441631
 1893, 651.001, 0.9875, 2.66882e-13, 1.06753e-08, 0.441631
 1896, 652.001, 0.9875, 2.82691e-13, 1.13076e-08, 0.441631
 1899, 653.001, 0.9875, 2.99398e-13, 1.19759e-08, 0.441631
 1902, 654.001, 0.9875, 3.17054e-13, 1.26822e-08, 0.441631
 1905, 655.001, 0.9875, 3.3571e-13, 1.34284e-08, 0.441631
 1908, 656.001, 0.9875, 3.55419e-13, 1.42168e-08, 0.441631
 1911, 657.001, 0.9875, 3.76239e-13, 1.50496e-08, 0.441631
 1914, 658.001, 0.9875, 3.98231e-13, 1.59292e-08, 0.441631
 1917, 659.001, 0.9875, 4.21456e-13, 1.68583e-08, 0.441631
 1920, 660.001, 0.9875, 4.45982e-13, 1.78393e-08, 0.441631
 1923, 661.001, 0.9875, 4.71878e-13, 1.88751e-08, 0.441631
 1926, 662.001, 0.9875, 4.99217e-13, 1.99687e-08, 0.441631
 1929, 663.001, 0.9875, 5.28077e-13, 2.11231e-08, 0.441631
 1932, 664.001, 0.9875, 5.58538e-13, 2.23415e-08, 0.441631
 1935, 665.001, 0.9875, 5.90685e-13, 2.36274e-08, 0.441631
 1938, 666.001, 0.9875, 6.24609e-13, 2.49844e-08, 0.441631
 1941, 667.001, 0.9875, 6.60402e-13, 2.64161e-08, 0.441631
 1944, 668.001, 0.9875, 6.98163e-13, 2.79265e-08, 0.441631
 1947, 669.001, 0.9875, 7.37997e-13, 2.95199e-08, 0.441631
 1950, 670.001, 0.9875, 7.80012e-13, 3.12005e-08, 0.441631
 1953, 671.001, 0.9875, 8.24322e-13, 3.29729e-08, 0.441631
 1956, 672.001, 0.9875, 8.71047e-13, 3.48419e-08, 0.441631
 1959, 673.001, 0.9875, 9.20313e-13, 3.68125e-08, 0.441631
 1962, 674.001, 0.9875, 9.72253e-13, 3.88901e-08, 0.441631
 1965, 675.001, 0.9875, 1.02701e-12, 4.10802e-08, 0.441631
 1968, 676.001, 0.9875, 1.08472e-12, 4.33886e-08, 0.441631
 1971, 677.001, 0.9875, 1.14554e-12, 4.58215e-08, 0.441631
 1974, 678.001, 0.9875, 1.20963e-12, 4.83852e-08, 0.441631
 1977, 679.001, 0.9875, 1.27716e-12, 5.10865e-08, 0.441631
 1980, 680.001, 0.9875, 1.34831e-12, 5.39325e-08, 0.441631
 1983, 681.001, 0.9875, 1.42326e-12, 5.69306e-08, 0.441631
 1986, 682.001, 0.9875, 1.50221e-12, 6.00885e-08, 0.441631
 1989, 683.001, 0.9875, 1.58536e-12, 6.34144e-08, 0.441631
 1992, 684.001, 0.9875, 1.67292e-12, 6.69169e-08, 0.441631
 1995, 685.001, 0.9875, 1.76512e-12, 7.06049e-08, 0.441631
 1998, 686.001, 0.9875, 1.8622e-12, 7.44878e-08, 0.441631
 2001, 687.001, 0.9875, 1.96439e-12, 7.85755e-08, 0.441631
 2004, 688.001, 0.9875, 2.07196e-12, 8.28783e-08, 0.441631
 2007, 689.001, 0.9875, 2.18518e-12, 8.74071e-08, 0.441631
 2010, 690.001, 0.9875, 2.30433e-12, 9.21731e-08, 0.441631
 2013, 691.001, 0.9875, 2.42971e-12, 9.71883e-08, 0.441631
 2016, 692.001, 0.9875, 2.56163e-12, 1.02465e-07, 0.441631
 2019, 693.001, 0.9875, 2.70042e-12, 1.08017e-07, 0.441631
 2022, 694.001, 0.9875, 2.84641e-12, 1.13857e-07, 0.441631
 2025, 695.001, 0.9875, 2.99998e-12, 1.19999e-07, 0.441631
 2028, 696.001, 0.9875, 3.16148e-12, 1.26459e-07, 0.441631
 2031, 697.001, 0.9875, 3.33132e-12, 1.33253e-07, 0.441631
 2034, 698.001, 0.9875, 3.50991e-12, 1.40396e-07, 0.441631
 2037, 699.001, 0.9875, 3.69767e-12, 1.47907e-07, 0.441631
 2040, 700.001, 0.9875, 3.89506e-12, 1.55803e-07, 0.441631
 2043, 701.001, 0.9875, 4.10255e-12, 1.64102e-07, 0.441631
 2046, 702.001, 0.9875, 4.32063e-12, 1.72825e-07, 0.441631
 2049, 703.001, 0.9875, 4.54983e-12, 1.81993e-07, 0.441631
 2052, 704.001, 0.9875, 4.79067e-12, 1.91627e-07, 0.441631
 2055, 705.001, 0.9875, 5.04373e-12, 2.01749e-07, 0.441631
 2058, 706.001, 0.9875, 5.3096e-12, 2.12384e-07, 0.441631
 2061, 707.001, 0.9875, 5.58889e-12, 2.23556e-07, 0.441631
 2064, 708.001, 0.9875, 5.88227e-12, 2.35291e-07, 0.441631
 2067, 709.001, 0.9875, 6.1904e-12, 2.47616e-07, 0.441631
 2070, 710.001, 0.9875, 6.51399e-12, 2.6056e-07, 0.441631
 2073, 711.001, 0.9875, 6.85379e-12, 2.74152e-07, 0.441631
 2076, 712.001, 0.9875, 7.21057e-12, 2.88423e-07, 0.441631
 2079, 713.001, 0.9875, 7.58514e-12, 3.03406e-07, 0.441631
 2082, 714.001, 0.9875, 7.97835e-12, 3.19134e-07, 0.441631
 2085, 715.001, 0.9875, 8.39109e-12, 3.35644e-07, 0.441631
 2088, 716.001, 0.9875, 8.82428e-12, 3.52971e-07, 0.441631
 2091, 717.001, 0.9875, 9.27889e-12, 3.71156e-07, 0.441631
 2094, 718.001, 0.9875, 9.75593e-12, 3.90237e-07, 0.441631
 2097, 719.001, 0.9875, 1.02565e-11, 4.10258e-07, 0.441631
 2100, 720.001, 0.9875, 1.07816e-11, 4.31263e-07, 0.441631
 2103, 721.001, 0.9875, 1.13325e-11, 4.53298e-07, 0.441631
 2106, 722.001, 0.9875, 1.19103e-11, 4.76411e-07, 0.441631
 2109, 723.001, 0.9875, 1.25163e-11, 5.00652e-07, 0.441631
 2112, 724.001, 0.9875, 1.31519e-11, 5.26075e-07, 0.441631
 2115, 725.001, 0.9875, 1.38183e-11, 5.52733e-07, 0.441631
 2118, 726.001, 0.9875, 1.45171e-11, 5.80685e-07, 0.441631
 2121, 727.001, 0.9875, 1.52498e-11, 6.09991e-07, 0.441631
 2124, 728.001, 0.9875, 1.60178e-11, 6.40712e-07, 0.441631
 2127, 729.001, 0.9875, 1.68229e-11, 6.72915e-07, 0.441631
 2130, 730.001, 0.9875, 1.76667e-11, 7.06667e-07, 0.441631
 2133, 731.001, 0.9875, 1.8551e-11, 7.42039e-07, 0.441631
 2136, 732.001, 0.9875, 1.94777e-11, 7.79107e-07, 0.441631
 2139, 733.001, 0.9875, 2.04487e-11, 8.17947e-07, 0.441631
 2142, 734.001, 0.9875, 2.1466e-11, 8.5864e-07, 0.441631
 2145, 735.001, 0.9875, 2.25318e-11, 9.01271e-07, 0.441631
 2148, 736.001, 0.9875, 2.36482e-11, 9.45927e-07, 0.441631
 2151, 737.001, 0.9875, 2.48175e-11, 9.92702e-07, 0.441631
 2154, 738.001, 0.9875, 2.60422e-11, 1.04169e-06, 0.441631
 2157, 739.001, 0.9875, 2.73248e-11, 1.09299e-06, 0.441631
 2160, 740.001, 0.9875, 2.86677e-11, 1.14671e-06, 0.441631
 2163, 741.001, 0.9875, 3.00738e-11, 1.20295e-06, 0.441631
 2166, 742.001, 0.9875, 3.1546e-11, 1.26184e-06, 0.441631
 2169, 743.001, 0.9875, 3.3087e-11, 1.32348e-06, 0.441631
 2172, 744.001, 0.9875, 3.47001e-11, 1.38801e-06, 0.441631
 2175, 745.001, 0.9875, 3.63885e-11, 1.45554e-06, 0.441631
 2178, 746.001, 0.9875, 3.81554e-11, 1.52622e-06, 0.441631
 2181, 747.001, 0.9875, 4.00044e-11, 1.60018e-06, 0.441631
 2184, 748.001, 0.9875, 4.19391e-11, 1.67756e-06, 0.441631
 2187, 749.001, 0.9875, 4.39633e-11, 1.75853e-06, 0.441631
 2190, 750.001, 0.9875, 4.6081e-11, 1.84324e-06, 0.441631
 2193, 751.001, 0.9875, 4.82963e-11, 1.93185e-06, 0.441631
 2196, 752.001, 0.9875, 5.06134e-11, 2.02453e-06, 0.441631
 2199, 753.001, 0.9875, 5.30368e-11, 2.12147e-06, 0.441631
 2202, 754.001, 0.9875, 5.55712e-11, 2.22285e-06, 0.441631
 2205, 755.001, 0.9875, 5.82214e-11, 2.32886e-06, 0.441631
 2208, 756.001, 0.9875, 6.09925e-11, 2.4397e-06, 0.441631
 2211, 757.001, 0.9875, 6.38897e-11, 2.55559e-06, 0.441631
 2214, 758.001, 0.9875, 6.69185e-11, 2.67674e-06, 0.441631
 2217, 759.001, 0.9875, 7.00846e-11, 2.80339e-06, 0.441631
 2220, 760.001, 0.9875, 7.3394e-11, 2.93576e-06, 0.441631
 2223, 761.001, 0.9875, 7.68527e-11, 3.07411e-06, 0.441631
 2226, 762.001, 0.9875, 8.04673e-11, 3.21869e-06, 0.441631
 2229, 763.001, 0.9875, 8.42444e-11, 3.36978e-06, 0.441631
 2232, 764.001, 0.9875, 8.8191e-11, 3.52764e-06, 0.441631
 2235, 765.001, 0.9875, 9.23144e-11, 3.69258e-06, 0.441631
 2238, 766.001, 0.9875, 9.6622e-11, 3.86488e-06, 0.441631
 2241, 767.001, 0.9875, 1.01122e-10, 4.04487e-06, 0.441631
 2244, 768.001, 0.9875, 1.05822e-10, 4.23288e-06, 0.441631
 2247, 769.001, 0.9875, 1.10731e-10, 4.42923e-06, 0.441631
 2250, 770.001, 0.9875, 1.15857e-10, 4.63429e-06, 0.441631
 2253, 771.001, 0.9875, 1.21211e-10, 4.84843e-06, 0.441631
 2256, 772.001, 0.9875, 1.268e-10, 5.07202e-06, 0.441631
 2259, 773.001, 0.9875, 1.32637e-10, 5.30546e-06, 0.441631
 2262, 774.001, 0.9875, 1.38729e-10, 5.54917e-06, 0.441631
 2265, 775.001, 0.9875, 1.4509e-10, 5.80358e-06, 0.441631
 2268, 776.001, 0.9875, 1.51728e-10, 6.06914e-06, 0.441631
 2271, 777.001, 0.9875, 1.58658e-10, 6.3463e-06, 0.441631
 2274, 778.001, 0.9875, 1.65889e-10, 6.63556e-06, 0.441631
 2277, 779.001, 0.9875, 1.73435e-10, 6.93742e-06, 0.441631
 2280, 780.001, 0.9875, 1.8131e-10, 7.25239e-06, 0.441631
 2283, 781.001, 0.9875, 1.89526e-10, 7.58103e-06, 0.441631
 2286, 782.001, 0.9875, 1.98097e-10, 7.92389e-06, 0.441631
 2289, 783.001, 0.9875, 2.07039e-10, 8.28156e-06, 0.441631
 2292, 784.001, 0.9875, 2.16367e-10, 8.65466e-06, 0.441631
 2295, 785.001, 0.9875, 2.26095e-10, 9.04381e-06, 0.441631
 2298, 786.001, 0.9875, 2.36242e-10, 9.44968e-06, 0.441631
 2301, 787.001, 0.9875, 2.46824e-10, 9.87294e-06, 0.441631
 2304, 788.001, 0.9875, 2.57858e-10, 1.03143e-05, 0.441631
 2307, 789.001, 0.9875, 2.69363e-10, 1.07745e-05, 0.441631
 2310, 790.001, 0.9875, 2.81359e-10, 1.12543e-05, 0.441631
 2313, 791.001, 0.9875, 2.93864e-10, 1.17546e-05, 0.441631
 2316, 792.001, 0.9875, 3.06901e-10, 1.2276e-05, 0.441631
 2319, 793.001, 0.9875, 3.20489e-10, 1.28196e-05, 0.441631
 2322, 794.001, 0.9875, 3.34653e-10, 1.33861e-05, 0.441631
 2325, 795.001, 0.9875, 3.49413e-10, 1.39765e-05, 0.441631
 2328, 796.001, 0.9875, 3.64796e-10, 1.45918e-05, 0.441631
 2331, 797.001, 0.9875, 3.80825e-10, 1.5233e-05, 0.441631
 2334, 798.001, 0.9875, 3.97526e-10, 1.5901e-05, 0.441631
 2337, 799.001, 0.9875, 4.14927e-10, 1.65971e-05, 0.441631
 2340, 800.001, 0.9875, 4.33054e-10, 1.73222e-05, 0.441631