File: examples/Birch_TGA_Example/Work/Cone_x4pclkgu/birch_tga_1step_10_tga.csv
s,C,g/g,1/s,W/g,W/g
Time,Temp,Mass,MLR,MCC,DSC
 6, 21.0007, 0.999998, 4.369e-07, 0.0000000E+000, 0.236481
 12, 22.0007, 0.999995, 5.01762e-07, 0.0000000E+000, 0.236626
 18, 23.0007, 0.999992, 5.75705e-07, 0.0000000E+000, 0.236791
 24, 24.0007, 0.999988, 6.5992e-07, 0.0000000E+000, 0.236979
 30, 25.0007, 0.999984, 7.55746e-07, 0.0000000E+000, 0.237193
 36, 26.0007, 0.999979, 8.64679e-07, 0.0000000E+000, 0.237436
 42, 27.0007, 0.999973, 9.88398e-07, 0.0000000E+000, 0.237712
 48, 28.0007, 0.999967, 1.12878e-06, 0.0000000E+000, 0.238026
 54, 29.0007, 0.99996, 1.28792e-06, 0.0000000E+000, 0.238381
 60, 30.0007, 0.999951, 1.46815e-06, 0.0000000E+000, 0.238783
 66, 31.0007, 0.999942, 1.67208e-06, 0.0000000E+000, 0.239238
 72, 32.0007, 0.999931, 1.90261e-06, 0.0000000E+000, 0.239752
 78, 33.0007, 0.999919, 2.16297e-06, 0.0000000E+000, 0.240332
 84, 34.0007, 0.999905, 2.45672e-06, 0.0000000E+000, 0.240988
 90, 35.0007, 0.999889, 2.78785e-06, 0.0000000E+000, 0.241726
 96, 36.0007, 0.999872, 3.16074e-06, 0.0000000E+000, 0.242557
 102, 37.0007, 0.999851, 3.58024e-06, 0.0000000E+000, 0.243492
 108, 38.0007, 0.999829, 4.05172e-06, 0.0000000E+000, 0.244543
 114, 39.0007, 0.999803, 4.58107e-06, 0.0000000E+000, 0.245723
 120, 40.0007, 0.999773, 5.17477e-06, 0.0000000E+000, 0.247046
 126, 41.0007, 0.99974, 5.83993e-06, 0.0000000E+000, 0.248528
 132, 42.0007, 0.999703, 6.58435e-06, 0.0000000E+000, 0.250187
 138, 43.0007, 0.999661, 7.41652e-06, 0.0000000E+000, 0.252041
 144, 44.0007, 0.999614, 8.34569e-06, 0.0000000E+000, 0.25411
 150, 45.0007, 0.999561, 9.38191e-06, 0.0000000E+000, 0.256418
 156, 46.0007, 0.999501, 1.0536e-05, 0.0000000E+000, 0.258988
 162, 47.0007, 0.999434, 1.18198e-05, 0.0000000E+000, 0.261846
 168, 48.0007, 0.999359, 1.32457e-05, 0.0000000E+000, 0.26502
 174, 49.0007, 0.999275, 1.48273e-05, 0.0000000E+000, 0.268541
 180, 50.0007, 0.999181, 1.65786e-05, 0.0000000E+000, 0.272438
 186, 51.0007, 0.999076, 1.85149e-05, 0.0000000E+000, 0.276746
 192, 52.0007, 0.998958, 2.06518e-05, 0.0000000E+000, 0.281499
 198, 53.0007, 0.998827, 2.30056e-05, 0.0000000E+000, 0.286735
 204, 54.0007, 0.998682, 2.55932e-05, 0.0000000E+000, 0.292488
 210, 55.0007, 0.99852, 2.84316e-05, 0.0000000E+000, 0.298798
 216, 56.0007, 0.99834, 3.15376e-05, 0.0000000E+000, 0.305701
 222, 57.0007, 0.998141, 3.49279e-05, 0.0000000E+000, 0.313233
 228, 58.0007, 0.99792, 3.86181e-05, 0.0000000E+000, 0.32143
 234, 59.0006, 0.997676, 4.26227e-05, 0.0000000E+000, 0.330321
 240, 60.0006, 0.997408, 4.69538e-05, 0.0000000E+000, 0.339934
 246, 61.0006, 0.997112, 5.1621e-05, 0.0000000E+000, 0.350289
 252, 62.0006, 0.996788, 5.66299e-05, 0.0000000E+000, 0.361396
 258, 63.0006, 0.996432, 6.19815e-05, 0.0000000E+000, 0.373258
 264, 64.0006, 0.996043, 6.76707e-05, 0.0000000E+000, 0.38586
 270, 65.0006, 0.995619, 7.36851e-05, 0.0000000E+000, 0.399173
 276, 66.0006, 0.995158, 8.00034e-05, 0.0000000E+000, 0.413148
 282, 67.0006, 0.994659, 8.65938e-05, 0.0000000E+000, 0.427712
 288, 68.0006, 0.994119, 9.34127e-05, 0.0000000E+000, 0.442764
 294, 69.0006, 0.993537, 0.000100403, 0.0000000E+000, 0.458175
 300, 70.0006, 0.992914, 0.000107491, 0.0000000E+000, 0.473779
 306, 71.0006, 0.992247, 0.000114589, 0.0000000E+000, 0.489374
 312, 72.0005, 0.991539, 0.000121591, 0.0000000E+000, 0.504721
 318, 73.0005, 0.990789, 0.000128371, 0.0000000E+000, 0.519538
 324, 74.0005, 0.989999, 0.000134788, 0.0000000E+000, 0.533507
 330, 75.0005, 0.989172, 0.000140686, 0.0000000E+000, 0.546273
 336, 76.0005, 0.988312, 0.000145893, 0.0000000E+000, 0.557452
 342, 77.0005, 0.987423, 0.000150228, 0.0000000E+000, 0.566639
 348, 78.0005, 0.986511, 0.000153509, 0.0000000E+000, 0.573423
 354, 79.0005, 0.985583, 0.000155554, 0.0000000E+000, 0.577402
 360, 80.0005, 0.984647, 0.000156198, 0.0000000E+000, 0.578202
 366, 81.0005, 0.983712, 0.000155296, 0.0000000E+000, 0.575505
 372, 82.0005, 0.982787, 0.00015274, 0.0000000E+000, 0.569073
 378, 83.0005, 0.981883, 0.00014847, 0.0000000E+000, 0.558774
 384, 84.0005, 0.981009, 0.000142481, 0.0000000E+000, 0.54461
 390, 85.0005, 0.980176, 0.00013484, 0.0000000E+000, 0.526736
 396, 86.0005, 0.979394, 0.000125686, 0.0000000E+000, 0.505472
 402, 87.0006, 0.978671, 0.000115232, 0.0000000E+000, 0.481311
 408, 88.0006, 0.978013, 0.000103764, 0.0000000E+000, 0.454901
 414, 89.0006, 0.977427, 9.16268e-05, 0.0000000E+000, 0.427026
 420, 90.0006, 0.976915, 7.92048e-05, 0.0000000E+000, 0.39856
 426, 91.0006, 0.976476, 6.69e-05, 0.0000000E+000, 0.370411
 432, 92.0006, 0.976111, 5.51024e-05, 0.0000000E+000, 0.343461
 438, 93.0007, 0.975814, 4.41606e-05, 0.0000000E+000, 0.318496
 444, 94.0007, 0.975579, 3.43553e-05, 0.0000000E+000, 0.296147
 450, 95.0007, 0.975399, 2.58783e-05, 0.0000000E+000, 0.276842
 456, 96.0007, 0.975266, 1.88216e-05, 0.0000000E+000, 0.260783
 462, 97.0007, 0.97517, 1.31783e-05, 0.0000000E+000, 0.247949
 468, 98.0007, 0.975105, 8.85397e-06, 0.0000000E+000, 0.23812
 474, 99.0007, 0.975062, 5.68824e-06, 0.0000000E+000, 0.230929
 480, 100.001, 0.975035, 3.48129e-06, 0.0000000E+000, 0.225917
 486, 101.001, 0.975018, 2.02144e-06, 0.0000000E+000, 0.222604
 492, 102.001, 0.975009, 1.10874e-06, 0.0000000E+000, 0.220533
 498, 103.001, 0.975004, 5.71736e-07, 0.0000000E+000, 0.219315
 504, 104.001, 0.975002, 2.75767e-07, 0.0000000E+000, 0.218643
 510, 105.001, 0.975001, 1.23733e-07, 0.0000000E+000, 0.218299
 516, 106.001, 0.975, 5.13397e-08, 0.0000000E+000, 0.218135
 522, 107.001, 0.975, 1.95741e-08, 0.0000000E+000, 0.218063
 528, 108.001, 0.975, 6.81075e-09, 0.0000000E+000, 0.218034
 534, 109.001, 0.975, 2.1468e-09, 0.0000000E+000, 0.218023
 540, 110.001, 0.975, 6.08177e-10, 0.0000000E+000, 0.21802
 546, 111.001, 0.975, 1.53537e-10, 0.0000000E+000, 0.218019
 552, 112.001, 0.975, 3.42265e-11, 0.0000000E+000, 0.218018
 558, 113.001, 0.975, 6.67137e-12, 0.0000000E+000, 0.218018
 564, 114.001, 0.975, 1.12509e-12, 0.0000000E+000, 0.218018
 570, 115.001, 0.975, 1.62315e-13, 0.0000000E+000, 0.218018
 576, 116.001, 0.975, 1.97906e-14, 0.0000000E+000, 0.218018
 582, 117.001, 0.975, 2.01293e-15, 0.0000000E+000, 0.218018
 588, 118.001, 0.975, 1.68423e-16, 0.0000000E+000, 0.218018
 594, 119.001, 0.975, 1.14203e-17, 0.0000000E+000, 0.218018
 600, 120.001, 0.975, 6.17577e-19, 0.0000000E+000, 0.218018
 606, 121.001, 0.975, 2.6181e-20, 0.0000000E+000, 0.218018
 612, 122.001, 0.975, 8.54228e-22, 0.0000000E+000, 0.218018
 618, 123.001, 0.975, 2.10333e-23, 0.0000000E+000, 0.218018
 624, 124.001, 0.975, 3.82682e-25, 0.0000000E+000, 0.218018
 630, 125.001, 0.975, 5.03016e-27, 0.0000000E+000, 0.218018
 636, 126.001, 0.975, 4.66309e-29, 0.0000000E+000, 0.218018
 642, 127.001, 0.975, 2.97116e-31, 0.0000000E+000, 0.218018
 648, 128.001, 0.975, 1.26584e-33, 0.0000000E+000, 0.218018
 654, 129.001, 0.975, 3.50153e-36, 0.0000000E+000, 0.218018
 660, 130.001, 0.975, 0.0000000E+000, 1.38962e-38, 0.218018
 666, 131.001, 0.975, 0.0000000E+000, 1.87949e-38, 0.218018
 672, 132.001, 0.975, 0.0000000E+000, 2.53825e-38, 0.218018
 678, 133.001, 0.975, 0.0000000E+000, 3.42284e-38, 0.218018
 684, 134.001, 0.975, 0.0000000E+000, 4.60895e-38, 0.218018
 690, 135.001, 0.975, 0.0000000E+000, 6.19702e-38, 0.218018
 696, 136.001, 0.975, 0.0000000E+000, 8.32024e-38, 0.218018
 702, 137.001, 0.975, 0.0000000E+000, 1.11549e-37, 0.218018
 708, 138.001, 0.975, 0.0000000E+000, 1.49339e-37, 0.218018
 714, 139.001, 0.975, 0.0000000E+000, 1.9965e-37, 0.218018
 720, 140.001, 0.975, 0.0000000E+000, 2.66534e-37, 0.218018
 726, 141.001, 0.975, 0.0000000E+000, 3.5533e-37, 0.218018
 732, 142.001, 0.975, 0.0000000E+000, 4.73051e-37, 0.218018
 738, 143.001, 0.975, 0.0000000E+000, 6.28908e-37, 0.218018
 744, 144.001, 0.975, 0.0000000E+000, 8.34975e-37, 0.218018
 750, 145.001, 0.975, 0.0000000E+000, 1.10706e-36, 0.218018
 756, 146.001, 0.975, 0.0000000E+000, 1.46583e-36, 0.218018
 762, 147.001, 0.975, 0.0000000E+000, 1.93828e-36, 0.218018
 768, 148.001, 0.975, 0.0000000E+000, 2.55961e-36, 0.218018
 774, 149.001, 0.975, 0.0000000E+000, 3.37566e-36, 0.218018
 780, 150.001, 0.975, 0.0000000E+000, 4.44606e-36, 0.218018
 786, 151.001, 0.975, 0.0000000E+000, 5.84827e-36, 0.218018
 792, 152.001, 0.975, 0.0000000E+000, 7.6828e-36, 0.218018
 798, 153.001, 0.975, 0.0000000E+000, 1.00799e-35, 0.218018
 804, 154.001, 0.975, 0.0000000E+000, 1.32081e-35, 0.218018
 810, 155.001, 0.975, 0.0000000E+000, 1.72853e-35, 0.218018
 816, 156.001, 0.975, 0.0000000E+000, 2.25926e-35, 0.218018
 822, 157.001, 0.975, 0.0000000E+000, 2.94929e-35, 0.218018
 828, 158.001, 0.975, 0.0000000E+000, 3.84531e-35, 0.218018
 834, 159.001, 0.975, 0.0000000E+000, 5.00739e-35, 0.218018
 840, 160.001, 0.975, 0.0000000E+000, 6.51272e-35, 0.218018
 846, 161.001, 0.975, 0.0000000E+000, 8.46033e-35, 0.218018
 852, 162.001, 0.975, 0.0000000E+000, 1.09772e-34, 0.218018
 858, 163.001, 0.975, 0.0000000E+000, 1.42257e-34, 0.218018
 864, 164.001, 0.975, 0.0000000E+000, 1.84138e-34, 0.218018
 870, 165.001, 0.975, 0.0000000E+000, 2.38068e-34, 0.218018
 876, 166.001, 0.975, 0.0000000E+000, 3.07433e-34, 0.218018
 882, 167.001, 0.975, 0.0000000E+000, 3.96547e-34, 0.218018
 888, 168.001, 0.975, 1.27726e-38, 5.10903e-34, 0.218018
 894, 169.001, 0.975, 1.64371e-38, 6.57483e-34, 0.218018
 900, 170.001, 0.975, 2.11289e-38, 8.45155e-34, 0.218018
 906, 171.001, 0.975, 2.71292e-38, 1.08517e-33, 0.218018
 912, 172.001, 0.975, 3.47944e-38, 1.39178e-33, 0.218018
 918, 173.001, 0.975, 4.45756e-38, 1.78303e-33, 0.218018
 924, 174.001, 0.975, 5.70433e-38, 2.28173e-33, 0.218018
 930, 175.001, 0.975, 7.29178e-38, 2.91671e-33, 0.218018
 936, 176.001, 0.975, 9.31082e-38, 3.72433e-33, 0.218018
 942, 177.001, 0.975, 1.1876e-37, 4.7504e-33, 0.218018
 948, 178.001, 0.975, 1.51316e-37, 6.05263e-33, 0.218018
 954, 179.001, 0.975, 1.9259e-37, 7.70359e-33, 0.218018
 960, 180.001, 0.975, 2.44861e-37, 9.79443e-33, 0.218018
 966, 181.001, 0.975, 3.1099e-37, 1.24396e-32, 0.218018
 972, 182.001, 0.975, 3.94564e-37, 1.57826e-32, 0.218018
 978, 183.001, 0.975, 5.00075e-37, 2.0003e-32, 0.218018
 984, 184.001, 0.975, 6.33144e-37, 2.53257e-32, 0.218018
 990, 185.001, 0.975, 8.00797e-37, 3.20319e-32, 0.218018
 996, 186.001, 0.975, 1.01181e-36, 4.04723e-32, 0.218018
 1002, 187.001, 0.975, 1.27712e-36, 5.10849e-32, 0.218018
 1008, 188.001, 0.975, 1.61038e-36, 6.44151e-32, 0.218018
 1014, 189.001, 0.975, 2.02856e-36, 8.11423e-32, 0.218018
 1020, 190.001, 0.975, 2.55279e-36, 1.02111e-31, 0.218018
 1026, 191.001, 0.975, 3.20931e-36, 1.28372e-31, 0.218018
 1032, 192.001, 0.975, 4.0307e-36, 1.61228e-31, 0.218018
 1038, 193.001, 0.975, 5.05737e-36, 2.02295e-31, 0.218018
 1044, 194.001, 0.975, 6.3394e-36, 2.53576e-31, 0.218018
 1050, 195.001, 0.975, 7.93874e-36, 3.17549e-31, 0.218018
 1056, 196.001, 0.975, 9.93204e-36, 3.97282e-31, 0.218018
 1062, 197.001, 0.975, 1.2414e-35, 4.9656e-31, 0.218018
 1068, 198.001, 0.975, 1.55015e-35, 6.2006e-31, 0.218018
 1074, 199.001, 0.975, 1.93387e-35, 7.73548e-31, 0.218018
 1080, 200.001, 0.975, 2.41032e-35, 9.64127e-31, 0.218018
 1086, 201.001, 0.975, 3.00136e-35, 1.20054e-30, 0.218018
 1092, 202.001, 0.975, 3.73389e-35, 1.49356e-30, 0.218018
 1098, 203.001, 0.975, 4.64094e-35, 1.85638e-30, 0.218018
 1104, 204.001, 0.975, 5.76308e-35, 2.30523e-30, 0.218018
 1110, 205.001, 0.975, 7.15007e-35, 2.86003e-30, 0.218018
 1116, 206.001, 0.975, 8.86288e-35, 3.54515e-30, 0.218018
 1122, 207.001, 0.975, 1.09762e-34, 4.39047e-30, 0.218018
 1128, 208.001, 0.975, 1.35813e-34, 5.43251e-30, 0.218018
 1134, 209.001, 0.975, 1.67899e-34, 6.71594e-30, 0.218018
 1140, 210.001, 0.975, 2.07382e-34, 8.2953e-30, 0.218018
 1146, 211.001, 0.975, 2.55928e-34, 1.02371e-29, 0.218018
 1152, 212.001, 0.975, 3.15564e-34, 1.26226e-29, 0.218018
 1158, 213.001, 0.975, 3.88761e-34, 1.55504e-29, 0.218018
 1164, 214.001, 0.975, 4.78527e-34, 1.91411e-29, 0.218018
 1170, 215.001, 0.975, 5.88518e-34, 2.35407e-29, 0.218018
 1176, 216.001, 0.975, 7.23179e-34, 2.89272e-29, 0.218018
 1182, 217.001, 0.975, 8.87906e-34, 3.55163e-29, 0.218018
 1188, 218.001, 0.975, 1.08924e-33, 4.35698e-29, 0.218018
 1194, 219.001, 0.975, 1.33513e-33, 5.34051e-29, 0.218018
 1200, 220.001, 0.975, 1.63517e-33, 6.54067e-29, 0.218018
 1206, 221.001, 0.975, 2.00099e-33, 8.00396e-29, 0.218018
 1212, 222.001, 0.975, 2.44666e-33, 9.78663e-29, 0.218018
 1218, 223.001, 0.975, 2.98916e-33, 1.19567e-28, 0.218018
 1224, 224.001, 0.975, 3.64902e-33, 1.45961e-28, 0.218018
 1230, 225.001, 0.975, 4.45098e-33, 1.78039e-28, 0.218018
 1236, 226.001, 0.975, 5.42486e-33, 2.16994e-28, 0.218018
 1242, 227.001, 0.975, 6.6066e-33, 2.64264e-28, 0.218018
 1248, 228.001, 0.975, 8.03944e-33, 3.21578e-28, 0.218018
 1254, 229.001, 0.975, 9.77539e-33, 3.91016e-28, 0.218018
 1260, 230.001, 0.975, 1.1877e-32, 4.75078e-28, 0.218018
 1266, 231.001, 0.975, 1.44192e-32, 5.76767e-28, 0.218018
 1272, 232.001, 0.975, 1.74921e-32, 6.99685e-28, 0.218018
 1278, 233.001, 0.975, 2.12037e-32, 8.4815e-28, 0.218018
 1284, 234.001, 0.975, 2.56835e-32, 1.02734e-27, 0.218018
 1290, 235.001, 0.975, 3.10861e-32, 1.24344e-27, 0.218018
 1296, 236.001, 0.975, 3.75971e-32, 1.50388e-27, 0.218018
 1302, 237.001, 0.975, 4.54378e-32, 1.81751e-27, 0.218018
 1308, 238.001, 0.975, 5.48731e-32, 2.19492e-27, 0.218018
 1314, 239.001, 0.975, 6.62188e-32, 2.64875e-27, 0.218018
 1320, 240.001, 0.975, 7.98518e-32, 3.19407e-27, 0.218018
 1326, 241.001, 0.975, 9.62216e-32, 3.84886e-27, 0.218018
 1332, 242.001, 0.975, 1.15863e-31, 4.63453e-27, 0.218018
 1338, 243.001, 0.975, 1.39414e-31, 5.57655e-27, 0.218018
 1344, 244.001, 0.975, 1.67631e-31, 6.70526e-27, 0.218018
 1350, 245.001, 0.975, 2.01417e-31, 8.05668e-27, 0.218018
 1356, 246.001, 0.975, 2.41841e-31, 9.67363e-27, 0.218018
 1362, 247.001, 0.975, 2.90173e-31, 1.16069e-26, 0.218018
 1368, 248.001, 0.975, 3.47922e-31, 1.39169e-26, 0.218018
 1374, 249.001, 0.975, 4.16874e-31, 1.66749e-26, 0.218018
 1380, 250.001, 0.975, 4.99145e-31, 1.99658e-26, 0.218018
 1386, 251.001, 0.975, 5.97242e-31, 2.38897e-26, 0.218018
 1392, 252.001, 0.975, 7.1413e-31, 2.85652e-26, 0.218018
 1398, 253.001, 0.975, 8.53315e-31, 3.41326e-26, 0.218018
 1404, 254.001, 0.975, 1.01894e-30, 4.07575e-26, 0.218018
 1410, 255.001, 0.975, 1.21589e-30, 4.86356e-26, 0.218018
 1416, 256.001, 0.975, 1.44994e-30, 5.79978e-26, 0.218018
 1422, 257.001, 0.975, 1.7279e-30, 6.91161e-26, 0.218018
 1428, 258.001, 0.975, 2.05779e-30, 8.23116e-26, 0.218018
 1434, 259.001, 0.975, 2.44905e-30, 9.79619e-26, 0.218018
 1440, 260.001, 0.975, 2.9128e-30, 1.16512e-25, 0.218018
 1446, 261.001, 0.975, 3.46211e-30, 1.38484e-25, 0.218018
 1452, 262.001, 0.975, 4.11236e-30, 1.64494e-25, 0.218018
 1458, 263.001, 0.975, 4.8816e-30, 1.95264e-25, 0.218018
 1464, 264.001, 0.975, 5.79104e-30, 2.31642e-25, 0.218018
 1470, 265.001, 0.975, 6.86555e-30, 2.74622e-25, 0.218018
 1476, 266.001, 0.975, 8.13428e-30, 3.25371e-25, 0.218018
 1482, 267.001, 0.975, 9.63143e-30, 3.85257e-25, 0.218018
 1488, 268.001, 0.975, 1.1397e-29, 4.55881e-25, 0.218018
 1494, 269.001, 0.975, 1.34779e-29, 5.39116e-25, 0.218018
 1500, 270.001, 0.975, 1.59288e-29, 6.37154e-25, 0.218018
 1506, 271.001, 0.975, 1.8814e-29, 7.52559e-25, 0.218018
 1512, 272.001, 0.975, 2.22081e-29, 8.88323e-25, 0.218018
 1518, 273.001, 0.975, 2.61986e-29, 1.04794e-24, 0.218018
 1524, 274.001, 0.975, 3.08875e-29, 1.2355e-24, 0.218018
 1530, 275.001, 0.975, 3.63937e-29, 1.45575e-24, 0.218018
 1536, 276.001, 0.975, 4.28558e-29, 1.71423e-24, 0.218018
 1542, 277.001, 0.975, 5.04355e-29, 2.01742e-24, 0.218018
 1548, 278.001, 0.975, 5.93206e-29, 2.37282e-24, 0.218018
 1554, 279.001, 0.975, 6.973e-29, 2.7892e-24, 0.218018
 1560, 280.001, 0.975, 8.19181e-29, 3.27672e-24, 0.218018
 1566, 281.001, 0.975, 9.61806e-29, 3.84723e-24, 0.218018
 1572, 282.001, 0.975, 1.12861e-28, 4.51444e-24, 0.218018
 1578, 283.001, 0.975, 1.32358e-28, 5.29433e-24, 0.218018
 1584, 284.001, 0.975, 1.55135e-28, 6.2054e-24, 0.218018
 1590, 285.001, 0.975, 1.81728e-28, 7.26911e-24, 0.218018
 1596, 286.001, 0.975, 2.12758e-28, 8.51033e-24, 0.218018
 1602, 287.001, 0.975, 2.48947e-28, 9.9579e-24, 0.218018
 1608, 288.001, 0.975, 2.91129e-28, 1.16452e-23, 0.218018
 1614, 289.001, 0.975, 3.40269e-28, 1.36107e-23, 0.218018
 1620, 290.001, 0.975, 3.97482e-28, 1.58993e-23, 0.218018
 1626, 291.001, 0.975, 4.6406e-28, 1.85624e-23, 0.218018
 1632, 292.001, 0.975, 5.41492e-28, 2.16597e-23, 0.218018
 1638, 293.001, 0.975, 6.315e-28, 2.526e-23, 0.218018
 1644, 294.001, 0.975, 7.36071e-28, 2.94428e-23, 0.218018
 1650, 295.001, 0.975, 8.57495e-28, 3.42998e-23, 0.218018
 1656, 296.001, 0.975, 9.98413e-28, 3.99365e-23, 0.218018
 1662, 297.001, 0.975, 1.16187e-27, 4.64748e-23, 0.218018
 1668, 298.001, 0.975, 1.35137e-27, 5.40547e-23, 0.218018
 1674, 299.001, 0.975, 1.57094e-27, 6.28377e-23, 0.218018
 1680, 300.001, 0.975, 1.82524e-27, 7.30095e-23, 0.218018
 1686, 301.001, 0.975, 2.11959e-27, 8.47835e-23, 0.218018
 1692, 302.001, 0.975, 2.46013e-27, 9.8405e-23, 0.218018
 1698, 303.001, 0.975, 2.8539e-27, 1.14156e-22, 0.218018
 1704, 304.001, 0.975, 3.309e-27, 1.3236e-22, 0.218018
 1710, 305.001, 0.975, 3.83471e-27, 1.53388e-22, 0.218018
 1716, 306.001, 0.975, 4.44168e-27, 1.77667e-22, 0.218018
 1722, 307.001, 0.975, 5.14211e-27, 2.05685e-22, 0.218018
 1728, 308.001, 0.975, 5.95001e-27, 2.38e-22, 0.218018
 1734, 309.001, 0.975, 6.88138e-27, 2.75255e-22, 0.218018
 1740, 310.001, 0.975, 7.95457e-27, 3.18183e-22, 0.218018
 1746, 311.001, 0.975, 9.19058e-27, 3.67623e-22, 0.218018
 1752, 312.001, 0.975, 1.06134e-26, 4.24536e-22, 0.218018
 1758, 313.001, 0.975, 1.22505e-26, 4.90018e-22, 0.218018
 1764, 314.001, 0.975, 1.41331e-26, 5.65325e-22, 0.218018
 1770, 315.001, 0.975, 1.62972e-26, 6.51888e-22, 0.218018
 1776, 316.001, 0.975, 1.87836e-26, 7.51343e-22, 0.218018
 1782, 317.001, 0.975, 2.16388e-26, 8.65554e-22, 0.218018
 1788, 318.001, 0.975, 2.49162e-26, 9.96648e-22, 0.218018
 1794, 319.001, 0.975, 2.86763e-26, 1.14705e-21, 0.218018
 1800, 320.001, 0.975, 3.29882e-26, 1.31953e-21, 0.218018
 1806, 321.001, 0.975, 3.79305e-26, 1.51722e-21, 0.218018
 1812, 322.001, 0.975, 4.35929e-26, 1.74371e-21, 0.218018
 1818, 323.001, 0.975, 5.00771e-26, 2.00309e-21, 0.218018
 1824, 324.001, 0.975, 5.74992e-26, 2.29997e-21, 0.218018
 1830, 325.001, 0.975, 6.59908e-26, 2.63963e-21, 0.218018
 1836, 326.001, 0.975, 7.57016e-26, 3.02807e-21, 0.218018
 1842, 327.001, 0.975, 8.68017e-26, 3.47207e-21, 0.218018
 1848, 328.001, 0.975, 9.94842e-26, 3.97937e-21, 0.218018
 1854, 329.001, 0.975, 1.13968e-25, 4.55872e-21, 0.218018
 1860, 330.001, 0.975, 1.30502e-25, 5.22006e-21, 0.218018
 1866, 331.001, 0.975, 1.49367e-25, 5.97467e-21, 0.218018
 1872, 332.001, 0.975, 1.70883e-25, 6.83532e-21, 0.218018
 1878, 333.001, 0.975, 1.95412e-25, 7.81646e-21, 0.218018
 1884, 334.001, 0.975, 2.23362e-25, 8.9345e-21, 0.218018
 1890, 335.001, 0.975, 2.55199e-25, 1.0208e-20, 0.218018
 1896, 336.001, 0.975, 2.91446e-25, 1.16578e-20, 0.218018
 1902, 337.001, 0.975, 3.32696e-25, 1.33078e-20, 0.218018
 1908, 338.001, 0.975, 3.7962e-25, 1.51848e-20, 0.218018
 1914, 339.001, 0.975, 4.32976e-25, 1.7319e-20, 0.218018
 1920, 340.001, 0.975, 4.93619e-25, 1.97448e-20, 0.218018
 1926, 341.001, 0.975, 5.62515e-25, 2.25006e-20, 0.218018
 1932, 342.001, 0.975, 6.40756e-25, 2.56302e-20, 0.218018
 1938, 343.001, 0.975, 7.29571e-25, 2.91828e-20, 0.218018
 1944, 344.001, 0.975, 8.30347e-25, 3.32139e-20, 0.218018
 1950, 345.001, 0.975, 9.44647e-25, 3.77859e-20, 0.218018
 1956, 346.001, 0.975, 1.07423e-24, 4.29694e-20, 0.218018
 1962, 347.001, 0.975, 1.22109e-24, 4.88436e-20, 0.218018
 1968, 348.001, 0.975, 1.38745e-24, 5.54981e-20, 0.218018
 1974, 349.001, 0.975, 1.57583e-24, 6.30333e-20, 0.218018
 1980, 350.001, 0.975, 1.78906e-24, 7.15622e-20, 0.218018
 1986, 351.001, 0.975, 2.03031e-24, 8.12123e-20, 0.218018
 1992, 352.001, 0.975, 2.30316e-24, 9.21263e-20, 0.218018
 1998, 353.001, 0.975, 2.61162e-24, 1.04465e-19, 0.218018
 2004, 354.001, 0.975, 2.96021e-24, 1.18409e-19, 0.218018
 2010, 355.001, 0.975, 3.354e-24, 1.3416e-19, 0.218018
 2016, 356.001, 0.975, 3.79866e-24, 1.51946e-19, 0.218018
 2022, 357.001, 0.975, 4.30057e-24, 1.72023e-19, 0.218018
 2028, 358.001, 0.975, 4.86688e-24, 1.94675e-19, 0.218018
 2034, 359.001, 0.975, 5.50561e-24, 2.20224e-19, 0.218018
 2040, 360.001, 0.975, 6.22574e-24, 2.4903e-19, 0.218018
 2046, 361.001, 0.975, 7.03734e-24, 2.81493e-19, 0.218018
 2052, 362.001, 0.975, 7.95166e-24, 3.18067e-19, 0.218018
 2058, 363.001, 0.975, 8.98134e-24, 3.59253e-19, 0.218018
 2064, 364.001, 0.975, 1.01405e-23, 4.05619e-19, 0.218018
 2070, 365.001, 0.975, 1.14448e-23, 4.57793e-19, 0.218018
 2076, 366.001, 0.975, 1.29121e-23, 5.16484e-19, 0.218018
 2082, 367.001, 0.975, 1.4562e-23, 5.82479e-19, 0.218018
 2088, 368.001, 0.975, 1.64165e-23, 6.56661e-19, 0.218018
 2094, 369.001, 0.975, 1.85003e-23, 7.40014e-19, 0.218018
 2100, 370.001, 0.975, 2.08409e-23, 8.33637e-19, 0.218018
 2106, 371.001, 0.975, 2.34689e-23, 9.38758e-19, 0.218018
 2112, 372.001, 0.975, 2.64186e-23, 1.05674e-18, 0.218018
 2118, 373.001, 0.975, 2.97281e-23, 1.18913e-18, 0.218018
 2124, 374.001, 0.975, 3.344e-23, 1.3376e-18, 0.218018
 2130, 375.001, 0.975, 3.76018e-23, 1.50407e-18, 0.218018
 2136, 376.001, 0.975, 4.22661e-23, 1.69065e-18, 0.218018
 2142, 377.001, 0.975, 4.7492e-23, 1.89968e-18, 0.218018
 2148, 378.001, 0.975, 5.3345e-23, 2.1338e-18, 0.218018
 2154, 379.001, 0.975, 5.98979e-23, 2.39592e-18, 0.218018
 2160, 380.001, 0.975, 6.72319e-23, 2.68928e-18, 0.218018
 2166, 381.001, 0.975, 7.54372e-23, 3.01749e-18, 0.218018
 2172, 382.001, 0.975, 8.46143e-23, 3.38457e-18, 0.218018
 2178, 383.001, 0.975, 9.48745e-23, 3.79498e-18, 0.218018
 2184, 384.001, 0.975, 1.06342e-22, 4.25367e-18, 0.218018
 2190, 385.001, 0.975, 1.19154e-22, 4.76615e-18, 0.218018
 2196, 386.001, 0.975, 1.33463e-22, 5.33854e-18, 0.218018
 2202, 387.001, 0.975, 1.4944e-22, 5.9776e-18, 0.218018
 2208, 388.001, 0.975, 1.67272e-22, 6.69088e-18, 0.218018
 2214, 389.001, 0.975, 1.87168e-22, 7.48672e-18, 0.218018
 2220, 390.001, 0.975, 2.0936e-22, 8.37439e-18, 0.218018
 2226, 391.001, 0.975, 2.34103e-22, 9.36414e-18, 0.218018
 2232, 392.001, 0.975, 2.61684e-22, 1.04673e-17, 0.218018
 2238, 393.001, 0.975, 2.92415e-22, 1.16966e-17, 0.218018
 2244, 394.001, 0.975, 3.26647e-22, 1.30659e-17, 0.218018
 2250, 395.001, 0.975, 3.64766e-22, 1.45906e-17, 0.218018
 2256, 396.001, 0.975, 4.07199e-22, 1.62879e-17, 0.218018
 2262, 397.001, 0.975, 4.54418e-22, 1.81767e-17, 0.218018
 2268, 398.001, 0.975, 5.06947e-22, 2.02779e-17, 0.218018
 2274, 399.001, 0.975, 5.65365e-22, 2.26146e-17, 0.218018
 2280, 400.001, 0.975, 6.30309e-22, 2.52124e-17, 0.218018
 2286, 401.001, 0.975, 7.02488e-22, 2.80995e-17, 0.218018
 2292, 402.001, 0.975, 7.8268e-22, 3.13072e-17, 0.218018
 2298, 403.001, 0.975, 8.71748e-22, 3.48699e-17, 0.218018
 2304, 404.001, 0.975, 9.70643e-22, 3.88257e-17, 0.218018
 2310, 405.001, 0.975, 1.08041e-21, 4.32166e-17, 0.218018
 2316, 406.001, 0.975, 1.20222e-21, 4.80888e-17, 0.218018
 2322, 407.001, 0.975, 1.33734e-21, 5.34936e-17, 0.218018
 2328, 408.001, 0.975, 1.48718e-21, 5.94871e-17, 0.218018
 2334, 409.001, 0.975, 1.65329e-21, 6.61316e-17, 0.218018
 2340, 410.001, 0.975, 1.83739e-21, 7.34956e-17, 0.218018
 2346, 411.001, 0.975, 2.04136e-21, 8.16542e-17, 0.218018
 2352, 412.001, 0.975, 2.26727e-21, 9.06907e-17, 0.218018
 2358, 413.001, 0.975, 2.51741e-21, 1.00696e-16, 0.218018
 2364, 414.001, 0.975, 2.7943e-21, 1.11772e-16, 0.218018
 2370, 415.001, 0.975, 3.10071e-21, 1.24028e-16, 0.218018
 2376, 416.001, 0.975, 3.43967e-21, 1.37587e-16, 0.218018
 2382, 417.001, 0.975, 3.81454e-21, 1.52582e-16, 0.218018
 2388, 418.001, 0.975, 4.229e-21, 1.6916e-16, 0.218018
 2394, 419.001, 0.975, 4.6871e-21, 1.87484e-16, 0.218018
 2400, 420.001, 0.975, 5.19328e-21, 2.07731e-16, 0.218018
 2406, 421.001, 0.975, 5.75242e-21, 2.30097e-16, 0.218018
 2412, 422.001, 0.975, 6.36989e-21, 2.54795e-16, 0.218018
 2418, 423.001, 0.975, 7.05157e-21, 2.82063e-16, 0.218018
 2424, 424.001, 0.975, 7.80392e-21, 3.12157e-16, 0.218018
 2430, 425.001, 0.975, 8.63404e-21, 3.45362e-16, 0.218018
 2436, 426.001, 0.975, 9.5497e-21, 3.81988e-16, 0.218018
 2442, 427.001, 0.975, 1.05594e-20, 4.22377e-16, 0.218018
 2448, 428.001, 0.975, 1.16726e-20, 4.66903e-16, 0.218018
 2454, 429.001, 0.975, 1.28994e-20, 5.15975e-16, 0.218018
 2460, 430.001, 0.975, 1.42511e-20, 5.70042e-16, 0.218018
 2466, 431.001, 0.975, 1.57399e-20, 6.29597e-16, 0.218018
 2472, 432.001, 0.975, 1.73795e-20, 6.95178e-16, 0.218018
 2478, 433.001, 0.975, 1.91844e-20, 7.67375e-16, 0.218018
 2484, 434.001, 0.975, 2.11708e-20, 8.46833e-16, 0.218018
 2490, 435.001, 0.975, 2.33564e-20, 9.34258e-16, 0.218018
 2496, 436.001, 0.975, 2.57606e-20, 1.03042e-15, 0.218018
 2502, 437.001, 0.975, 2.84043e-20, 1.13617e-15, 0.218018
 2508, 438.001, 0.975, 3.13108e-20, 1.25243e-15, 0.218018
 2514, 439.001, 0.975, 3.45053e-20, 1.38021e-15, 0.218018
 2520, 440.001, 0.975, 3.80152e-20, 1.52061e-15, 0.218018
 2526, 441.001, 0.975, 4.18709e-20, 1.67484e-15, 0.218018
 2532, 442.001, 0.975, 4.61052e-20, 1.84421e-15, 0.218018
 2538, 443.001, 0.975, 5.0754e-20, 2.03016e-15, 0.218018
 2544, 444.001, 0.975, 5.58566e-20, 2.23427e-15, 0.218018
 2550, 445.001, 0.975, 6.14558e-20, 2.45823e-15, 0.218018
 2556, 446.001, 0.975, 6.75983e-20, 2.70393e-15, 0.218018
 2562, 447.001, 0.975, 7.43351e-20, 2.97341e-15, 0.218018
 2568, 448.001, 0.975, 8.17218e-20, 3.26887e-15, 0.218018
 2574, 449.001, 0.975, 8.98188e-20, 3.59275e-15, 0.218018
 2580, 450.001, 0.975, 9.86924e-20, 3.9477e-15, 0.218018
 2586, 451.001, 0.975, 1.08414e-19, 4.33658e-15, 0.218018
 2592, 452.001, 0.975, 1.19063e-19, 4.76253e-15, 0.218018
 2598, 453.001, 0.975, 1.30724e-19, 5.22897e-15, 0.218018
 2604, 454.001, 0.975, 1.4349e-19, 5.73962e-15, 0.218018
 2610, 455.001, 0.975, 1.57463e-19, 6.29853e-15, 0.218018
 2616, 456.001, 0.975, 1.72752e-19, 6.9101e-15, 0.218018
 2622, 457.001, 0.975, 1.89478e-19, 7.57913e-15, 0.218018
 2628, 458.001, 0.975, 2.07771e-19, 8.31083e-15, 0.218018
 2634, 459.001, 0.975, 2.27772e-19, 9.11087e-15, 0.218018
 2640, 460.001, 0.975, 2.49636e-19, 9.98543e-15, 0.218018
 2646, 461.001, 0.975, 2.7353e-19, 1.09412e-14, 0.218018
 2652, 462.001, 0.975, 2.99637e-19, 1.19855e-14, 0.218018
 2658, 463.001, 0.975, 3.28155e-19, 1.31262e-14, 0.218018
 2664, 464.001, 0.975, 3.59298e-19, 1.43719e-14, 0.218018
 2670, 465.001, 0.975, 3.933e-19, 1.5732e-14, 0.218018
 2676, 466.001, 0.975, 4.30414e-19, 1.72166e-14, 0.218018
 2682, 467.001, 0.975, 4.70916e-19, 1.88366e-14, 0.218018
 2688, 468.001, 0.975, 5.15104e-19, 2.06042e-14, 0.218018
 2694, 469.001, 0.975, 5.63302e-19, 2.25321e-14, 0.218018
 2700, 470.001, 0.975, 6.15862e-19, 2.46345e-14, 0.218018
 2706, 471.001, 0.975, 6.73165e-19, 2.69266e-14, 0.218018
 2712, 472.001, 0.975, 7.35624e-19, 2.9425e-14, 0.218018
 2718, 473.001, 0.975, 8.03687e-19, 3.21475e-14, 0.218018
 2724, 474.001, 0.975, 8.77839e-19, 3.51136e-14, 0.218018
 2730, 475.001, 0.975, 9.58607e-19, 3.83443e-14, 0.218018
 2736, 476.001, 0.975, 1.04656e-18, 4.18624e-14, 0.218018
 2742, 477.001, 0.975, 1.14232e-18, 4.56926e-14, 0.218018
 2748, 478.001, 0.975, 1.24654e-18, 4.98617e-14, 0.218018
 2754, 479.001, 0.975, 1.35996e-18, 5.43985e-14, 0.218018
 2760, 480.001, 0.975, 1.48336e-18, 5.93344e-14, 0.218018
 2766, 481.001, 0.975, 1.61758e-18, 6.47032e-14, 0.218018
 2772, 482.001, 0.975, 1.76354e-18, 7.05416e-14, 0.218018
 2778, 483.001, 0.975, 1.92223e-18, 7.68893e-14, 0.218018
 2784, 484.001, 0.975, 2.09473e-18, 8.37891e-14, 0.218018
 2790, 485.001, 0.975, 2.28219e-18, 9.12874e-14, 0.218018
 2796, 486.001, 0.975, 2.48586e-18, 9.94343e-14, 0.218018
 2802, 487.001, 0.975, 2.7071e-18, 1.08284e-13, 0.218018
 2808, 488.001, 0.975, 2.94736e-18, 1.17895e-13, 0.218018
 2814, 489.001, 0.975, 3.20824e-18, 1.2833e-13, 0.218018
 2820, 490.001, 0.975, 3.49143e-18, 1.39657e-13, 0.218018
 2826, 491.001, 0.975, 3.79878e-18, 1.51951e-13, 0.218018
 2832, 492.001, 0.975, 4.13228e-18, 1.65291e-13, 0.218018
 2838, 493.001, 0.975, 4.49406e-18, 1.79762e-13, 0.218018
 2844, 494.001, 0.975, 4.88645e-18, 1.95458e-13, 0.218018
 2850, 495.001, 0.975, 5.31194e-18, 2.12477e-13, 0.218018
 2856, 496.001, 0.975, 5.77322e-18, 2.30929e-13, 0.218018
 2862, 497.001, 0.975, 6.27321e-18, 2.50928e-13, 0.218018
 2868, 498.001, 0.975, 6.81503e-18, 2.72601e-13, 0.218018
 2874, 499.001, 0.975, 7.40206e-18, 2.96082e-13, 0.218018
 2880, 500.001, 0.975, 8.03794e-18, 3.21518e-13, 0.218018
 2886, 501.001, 0.975, 8.72658e-18, 3.49063e-13, 0.218018
 2892, 502.001, 0.975, 9.47222e-18, 3.78889e-13, 0.218018
 2898, 503.001, 0.975, 1.02794e-17, 4.11176e-13, 0.218018
 2904, 504.001, 0.975, 1.1153e-17, 4.4612e-13, 0.218018
 2910, 505.001, 0.975, 1.20983e-17, 4.83932e-13, 0.218018
 2916, 506.001, 0.975, 1.3121e-17, 5.2484e-13, 0.218018
 2922, 507.001, 0.975, 1.42272e-17, 5.69088e-13, 0.218018
 2928, 508.001, 0.975, 1.54235e-17, 6.16938e-13, 0.218018
 2934, 509.001, 0.975, 1.67168e-17, 6.68673e-13, 0.218018
 2940, 510.001, 0.975, 1.8115e-17, 7.24598e-13, 0.218018
 2946, 511.001, 0.975, 1.9626e-17, 7.85039e-13, 0.218018
 2952, 512.001, 0.975, 2.12587e-17, 8.50349e-13, 0.218018
 2958, 513.001, 0.975, 2.30226e-17, 9.20904e-13, 0.218018
 2964, 514.001, 0.975, 2.49278e-17, 9.97111e-13, 0.218018
 2970, 515.001, 0.975, 2.69852e-17, 1.07941e-12, 0.218018
 2976, 516.001, 0.975, 2.92065e-17, 1.16826e-12, 0.218018
 2982, 517.001, 0.975, 3.16044e-17, 1.26418e-12, 0.218018
 2988, 518.001, 0.975, 3.41923e-17, 1.36769e-12, 0.218018
 2994, 519.001, 0.975, 3.69848e-17, 1.47939e-12, 0.218018
 3000, 520.001, 0.975, 3.99974e-17, 1.59989e-12, 0.218018
 3006, 521.001, 0.975, 4.32468e-17, 1.72987e-12, 0.218018
 3012, 522.001, 0.975, 4.67511e-17, 1.87004e-12, 0.218018
 3018, 523.001, 0.975, 5.05294e-17, 2.02118e-12, 0.218018
 3024, 524.001, 0.975, 5.46025e-17, 2.1841e-12, 0.218018
 3030, 525.001, 0.975, 5.89924e-17, 2.3597e-12, 0.218018
 3036, 526.001, 0.975, 6.37229e-17, 2.54892e-12, 0.218018
 3042, 527.001, 0.975, 6.88194e-17, 2.75278e-12, 0.218018
 3048, 528.001, 0.975, 7.43094e-17, 2.97237e-12, 0.218018
 3054, 529.001, 0.975, 8.02219e-17, 3.20887e-12, 0.218018
 3060, 530.001, 0.975, 8.65883e-17, 3.46353e-12, 0.218018
 3066, 531.001, 0.975, 9.34422e-17, 3.73769e-12, 0.218018
 3072, 532.001, 0.975, 1.0082e-16, 4.03278e-12, 0.218018
 3078, 533.001, 0.975, 1.08759e-16, 4.35036e-12, 0.218018
 3084, 534.001, 0.975, 1.17301e-16, 4.69206e-12, 0.218018
 3090, 535.001, 0.975, 1.26491e-16, 5.05965e-12, 0.218018
 3096, 536.001, 0.975, 1.36375e-16, 5.45502e-12, 0.218018
 3102, 537.001, 0.975, 1.47005e-16, 5.8802e-12, 0.218018
 3108, 538.001, 0.975, 1.58433e-16, 6.33734e-12, 0.218018
 3114, 539.001, 0.975, 1.70719e-16, 6.82876e-12, 0.218018
 3120, 540.001, 0.975, 1.83923e-16, 7.35694e-12, 0.218018
 3126, 541.001, 0.975, 1.98113e-16, 7.92452e-12, 0.218018
 3132, 542.001, 0.975, 2.13358e-16, 8.53433e-12, 0.218018
 3138, 543.001, 0.975, 2.29735e-16, 9.18939e-12, 0.218018
 3144, 544.001, 0.975, 2.47324e-16, 9.89295e-12, 0.218018
 3150, 545.001, 0.975, 2.66211e-16, 1.06485e-11, 0.218018
 3156, 546.001, 0.975, 2.8649e-16, 1.14596e-11, 0.218018
 3162, 547.001, 0.975, 3.08258e-16, 1.23303e-11, 0.218018
 3168, 548.001, 0.975, 3.31621e-16, 1.32648e-11, 0.218018
 3174, 549.001, 0.975, 3.56691e-16, 1.42676e-11, 0.218018
 3180, 550.001, 0.975, 3.83588e-16, 1.53435e-11, 0.218018
 3186, 551.001, 0.975, 4.12441e-16, 1.64977e-11, 0.218018
 3192, 552.001, 0.975, 4.43387e-16, 1.77355e-11, 0.218018
 3198, 553.001, 0.975, 4.7657e-16, 1.90628e-11, 0.218018
 3204, 554.001, 0.975, 5.12148e-16, 2.04859e-11, 0.218018
 3210, 555.001, 0.975, 5.50286e-16, 2.20114e-11, 0.218018
 3216, 556.001, 0.975, 5.91162e-16, 2.36465e-11, 0.218018
 3222, 557.001, 0.975, 6.34964e-16, 2.53986e-11, 0.218018
 3228, 558.001, 0.975, 6.81895e-16, 2.72758e-11, 0.218018
 3234, 559.001, 0.975, 7.32168e-16, 2.92867e-11, 0.218018
 3240, 560.001, 0.975, 7.86015e-16, 3.14406e-11, 0.218018
 3246, 561.001, 0.975, 8.43677e-16, 3.37471e-11, 0.218018
 3252, 562.001, 0.975, 9.05416e-16, 3.62167e-11, 0.218018
 3258, 563.001, 0.975, 9.71509e-16, 3.88604e-11, 0.218018
 3264, 564.001, 0.975, 1.04225e-15, 4.16901e-11, 0.218018
 3270, 565.001, 0.975, 1.11796e-15, 4.47183e-11, 0.218018
 3276, 566.001, 0.975, 1.19896e-15, 4.79585e-11, 0.218018
 3282, 567.001, 0.975, 1.28562e-15, 5.14249e-11, 0.218018
 3288, 568.001, 0.975, 1.37832e-15, 5.51327e-11, 0.218018
 3294, 569.001, 0.975, 1.47745e-15, 5.9098e-11, 0.218018
 3300, 570.001, 0.975, 1.58345e-15, 6.33381e-11, 0.218018
 3306, 571.001, 0.975, 1.69678e-15, 6.78713e-11, 0.218018
 3312, 572.001, 0.975, 1.81793e-15, 7.27171e-11, 0.218018
 3318, 573.001, 0.975, 1.9474e-15, 7.78961e-11, 0.218018
 3324, 574.001, 0.975, 2.08576e-15, 8.34304e-11, 0.218018
 3330, 575.001, 0.975, 2.23359e-15, 8.93435e-11, 0.218018
 3336, 576.001, 0.975, 2.39151e-15, 9.56602e-11, 0.218018
 3342, 577.001, 0.975, 2.56018e-15, 1.02407e-10, 0.218018
 3348, 578.001, 0.975, 2.74031e-15, 1.09612e-10, 0.218018
 3354, 579.001, 0.975, 2.93264e-15, 1.17306e-10, 0.218018
 3360, 580.001, 0.975, 3.13797e-15, 1.25519e-10, 0.218018
 3366, 581.001, 0.975, 3.35715e-15, 1.34286e-10, 0.218018
 3372, 582.001, 0.975, 3.59108e-15, 1.43643e-10, 0.218018
 3378, 583.001, 0.975, 3.84069e-15, 1.53628e-10, 0.218018
 3384, 584.001, 0.975, 4.10702e-15, 1.64281e-10, 0.218018
 3390, 585.001, 0.975, 4.39112e-15, 1.75645e-10, 0.218018
 3396, 586.001, 0.975, 4.69415e-15, 1.87766e-10, 0.218018
 3402, 587.001, 0.975, 5.01731e-15, 2.00692e-10, 0.218018
 3408, 588.001, 0.975, 5.36189e-15, 2.14475e-10, 0.218018
 3414, 589.001, 0.975, 5.72925e-15, 2.2917e-10, 0.218018
 3420, 590.001, 0.975, 6.12083e-15, 2.44833e-10, 0.218018
 3426, 591.001, 0.975, 6.53819e-15, 2.61528e-10, 0.218018
 3432, 592.001, 0.975, 6.98293e-15, 2.79317e-10, 0.218018
 3438, 593.001, 0.975, 7.4568e-15, 2.98272e-10, 0.218018
 3444, 594.001, 0.975, 7.96162e-15, 3.18465e-10, 0.218018
 3450, 595.001, 0.975, 8.49933e-15, 3.39973e-10, 0.218018
 3456, 596.001, 0.975, 9.07199e-15, 3.6288e-10, 0.218018
 3462, 597.001, 0.975, 9.68178e-15, 3.87271e-10, 0.218018
 3468, 598.001, 0.975, 1.0331e-14, 4.13241e-10, 0.218018
 3474, 599.001, 0.975, 1.10222e-14, 4.40886e-10, 0.218018
 3480, 600.001, 0.975, 1.17578e-14, 4.70312e-10, 0.218018
 3486, 601.001, 0.975, 1.25407e-14, 5.01626e-10, 0.218018
 3492, 602.001, 0.975, 1.33737e-14, 5.34947e-10, 0.218018
 3498, 603.001, 0.975, 1.426e-14, 5.70398e-10, 0.218018
 3504, 604.001, 0.975, 1.52027e-14, 6.08109e-10, 0.218018
 3510, 605.001, 0.975, 1.62055e-14, 6.48219e-10, 0.218018
 3516, 606.001, 0.975, 1.72718e-14, 6.90874e-10, 0.218018
 3522, 607.001, 0.975, 1.84057e-14, 7.36229e-10, 0.218018
 3528, 608.001, 0.975, 1.96112e-14, 7.84448e-10, 0.218018
 3534, 609.001, 0.975, 2.08926e-14, 8.35706e-10, 0.218018
 3540, 610.001, 0.975, 2.22546e-14, 8.90184e-10, 0.218018
 3546, 611.001, 0.975, 2.3702e-14, 9.48079e-10, 0.218018
 3552, 612.001, 0.975, 2.52399e-14, 1.0096e-09, 0.218018
 3558, 613.001, 0.975, 2.68738e-14, 1.07495e-09, 0.218018
 3564, 614.001, 0.975, 2.86094e-14, 1.14438e-09, 0.218018
 3570, 615.001, 0.975, 3.04528e-14, 1.21811e-09, 0.218018
 3576, 616.001, 0.975, 3.24104e-14, 1.29642e-09, 0.218018
 3582, 617.001, 0.975, 3.44891e-14, 1.37956e-09, 0.218018
 3588, 618.001, 0.975, 3.66959e-14, 1.46784e-09, 0.218018
 3594, 619.001, 0.975, 3.90386e-14, 1.56154e-09, 0.218018
 3600, 620.001, 0.975, 4.1525e-14, 1.661e-09, 0.218018
 3606, 621.001, 0.975, 4.41637e-14, 1.76655e-09, 0.218018
 3612, 622.001, 0.975, 4.69636e-14, 1.87854e-09, 0.218018
 3618, 623.001, 0.975, 4.99341e-14, 1.99737e-09, 0.218018
 3624, 624.001, 0.975, 5.30853e-14, 2.12341e-09, 0.218018
 3630, 625.001, 0.975, 5.64277e-14, 2.25711e-09, 0.218018
 3636, 626.001, 0.975, 5.99723e-14, 2.39889e-09, 0.218018
 3642, 627.001, 0.975, 6.3731e-14, 2.54924e-09, 0.218018
 3648, 628.001, 0.975, 6.77162e-14, 2.70865e-09, 0.218018
 3654, 629.001, 0.975, 7.19408e-14, 2.87763e-09, 0.218018
 3660, 630.001, 0.975, 7.64188e-14, 3.05675e-09, 0.218018
 3666, 631.001, 0.975, 8.11647e-14, 3.24659e-09, 0.218018
 3672, 632.001, 0.975, 8.61938e-14, 3.44775e-09, 0.218018
 3678, 633.001, 0.975, 9.15224e-14, 3.6609e-09, 0.218018
 3684, 634.001, 0.975, 9.71676e-14, 3.8867e-09, 0.218018
 3690, 635.001, 0.975, 1.03147e-13, 4.12589e-09, 0.218018
 3696, 636.001, 0.975, 1.09481e-13, 4.37923e-09, 0.218018
 3702, 637.001, 0.975, 1.16188e-13, 4.64751e-09, 0.218018
 3708, 638.001, 0.975, 1.2329e-13, 4.93158e-09, 0.218018
 3714, 639.001, 0.975, 1.30809e-13, 5.23234e-09, 0.218018
 3720, 640.001, 0.975, 1.38768e-13, 5.55072e-09, 0.218018
 3726, 641.001, 0.975, 1.47193e-13, 5.88771e-09, 0.218018
 3732, 642.001, 0.975, 1.56109e-13, 6.24436e-09, 0.218018
 3738, 643.001, 0.975, 1.65544e-13, 6.62175e-09, 0.218018
 3744, 644.001, 0.975, 1.75527e-13, 7.02106e-09, 0.218018
 3750, 645.001, 0.975, 1.86088e-13, 7.4435e-09, 0.218018
 3756, 646.001, 0.975, 1.97259e-13, 7.89036e-09, 0.218018
 3762, 647.001, 0.975, 2.09074e-13, 8.36298e-09, 0.218018
 3768, 648.001, 0.975, 2.2157e-13, 8.86279e-09, 0.218018
 3774, 649.001, 0.975, 2.34782e-13, 9.39128e-09, 0.218018
 3780, 650.001, 0.975, 2.48751e-13, 9.95005e-09, 0.218018
 3786, 651.001, 0.975, 2.63518e-13, 1.05407e-08, 0.218018
 3792, 652.001, 0.975, 2.79128e-13, 1.11651e-08, 0.218018
 3798, 653.001, 0.975, 2.95625e-13, 1.1825e-08, 0.218018
 3804, 654.001, 0.975, 3.13058e-13, 1.25223e-08, 0.218018
 3810, 655.001, 0.975, 3.31478e-13, 1.32591e-08, 0.218018
 3816, 656.001, 0.975, 3.50939e-13, 1.40376e-08, 0.218018
 3822, 657.001, 0.975, 3.71497e-13, 1.48599e-08, 0.218018
 3828, 658.001, 0.975, 3.93211e-13, 1.57285e-08, 0.218018
 3834, 659.001, 0.975, 4.16144e-13, 1.66458e-08, 0.218018
 3840, 660.001, 0.975, 4.4036e-13, 1.76144e-08, 0.218018
 3846, 661.001, 0.975, 4.6593e-13, 1.86372e-08, 0.218018
 3852, 662.001, 0.975, 4.92924e-13, 1.9717e-08, 0.218018
 3858, 663.001, 0.975, 5.2142e-13, 2.08568e-08, 0.218018
 3864, 664.001, 0.975, 5.51497e-13, 2.20599e-08, 0.218018
 3870, 665.001, 0.975, 5.8324e-13, 2.33296e-08, 0.218018
 3876, 666.001, 0.975, 6.16735e-13, 2.46694e-08, 0.218018
 3882, 667.001, 0.975, 6.52077e-13, 2.60831e-08, 0.218018
 3888, 668.001, 0.975, 6.89363e-13, 2.75745e-08, 0.218018
 3894, 669.001, 0.975, 7.28694e-13, 2.91478e-08, 0.218018
 3900, 670.001, 0.975, 7.70179e-13, 3.08072e-08, 0.218018
 3906, 671.001, 0.975, 8.1393e-13, 3.25572e-08, 0.218018
 3912, 672.001, 0.975, 8.60066e-13, 3.44026e-08, 0.218018
 3918, 673.001, 0.975, 9.08711e-13, 3.63485e-08, 0.218018
 3924, 674.001, 0.975, 9.59996e-13, 3.83998e-08, 0.218018
 3930, 675.001, 0.975, 1.01406e-12, 4.05623e-08, 0.218018
 3936, 676.001, 0.975, 1.07104e-12, 4.28416e-08, 0.218018
 3942, 677.001, 0.975, 1.1311e-12, 4.52438e-08, 0.218018
 3948, 678.001, 0.975, 1.19438e-12, 4.77752e-08, 0.218018
 3954, 679.001, 0.975, 1.26106e-12, 5.04425e-08, 0.218018
 3960, 680.001, 0.975, 1.33131e-12, 5.32526e-08, 0.218018
 3966, 681.001, 0.975, 1.40532e-12, 5.62128e-08, 0.218018
 3972, 682.001, 0.975, 1.48327e-12, 5.93309e-08, 0.218018
 3978, 683.001, 0.975, 1.56537e-12, 6.26149e-08, 0.218018
 3984, 684.001, 0.975, 1.65183e-12, 6.60732e-08, 0.218018
 3990, 685.001, 0.975, 1.74287e-12, 6.97147e-08, 0.218018
 3996, 686.001, 0.975, 1.83872e-12, 7.35487e-08, 0.218018
 4002, 687.001, 0.975, 1.93962e-12, 7.75849e-08, 0.218018
 4008, 688.001, 0.975, 2.04584e-12, 8.18334e-08, 0.218018
 4014, 689.001, 0.975, 2.15763e-12, 8.63051e-08, 0.218018
 4020, 690.001, 0.975, 2.27527e-12, 9.1011e-08, 0.218018
 4026, 691.001, 0.975, 2.39907e-12, 9.5963e-08, 0.218018
 4032, 692.001, 0.975, 2.52933e-12, 1.01173e-07, 0.218018
 4038, 693.001, 0.975, 2.66637e-12, 1.06655e-07, 0.218018
 4044, 694.001, 0.975, 2.81053e-12, 1.12421e-07, 0.218018
 4050, 695.001, 0.975, 2.96215e-12, 1.18486e-07, 0.218018
 4056, 696.001, 0.975, 3.12162e-12, 1.24865e-07, 0.218018
 4062, 697.001, 0.975, 3.28932e-12, 1.31573e-07, 0.218018
 4068, 698.001, 0.975, 3.46565e-12, 1.38626e-07, 0.218018
 4074, 699.001, 0.975, 3.65105e-12, 1.46042e-07, 0.218018
 4080, 700.001, 0.975, 3.84595e-12, 1.53838e-07, 0.218018
 4086, 701.001, 0.975, 4.05082e-12, 1.62033e-07, 0.218018
 4092, 702.001, 0.975, 4.26615e-12, 1.70646e-07, 0.218018
 4098, 703.001, 0.975, 4.49246e-12, 1.79698e-07, 0.218018
 4104, 704.001, 0.975, 4.73026e-12, 1.8921e-07, 0.218018
 4110, 705.001, 0.975, 4.98013e-12, 1.99205e-07, 0.218018
 4116, 706.001, 0.975, 5.24264e-12, 2.09706e-07, 0.218018
 4122, 707.001, 0.975, 5.51842e-12, 2.20737e-07, 0.218018
 4128, 708.001, 0.975, 5.80809e-12, 2.32324e-07, 0.218018
 4134, 709.001, 0.975, 6.11234e-12, 2.44494e-07, 0.218018
 4140, 710.001, 0.975, 6.43185e-12, 2.57274e-07, 0.218018
 4146, 711.001, 0.975, 6.76736e-12, 2.70695e-07, 0.218018
 4152, 712.001, 0.975, 7.11964e-12, 2.84786e-07, 0.218018
 4158, 713.001, 0.975, 7.48949e-12, 2.9958e-07, 0.218018
 4164, 714.001, 0.975, 7.87774e-12, 3.1511e-07, 0.218018
 4170, 715.001, 0.975, 8.28528e-12, 3.31411e-07, 0.218018
 4176, 716.001, 0.975, 8.713e-12, 3.4852e-07, 0.218018
 4182, 717.001, 0.975, 9.16188e-12, 3.66475e-07, 0.218018
 4188, 718.001, 0.975, 9.6329e-12, 3.85316e-07, 0.218018
 4194, 719.001, 0.975, 1.01271e-11, 4.05085e-07, 0.218018
 4200, 720.001, 0.975, 1.06456e-11, 4.25825e-07, 0.218018
 4206, 721.001, 0.975, 1.11895e-11, 4.47581e-07, 0.218018
 4212, 722.001, 0.975, 1.17601e-11, 4.70403e-07, 0.218018
 4218, 723.001, 0.975, 1.23585e-11, 4.94338e-07, 0.218018
 4224, 724.001, 0.975, 1.2986e-11, 5.1944e-07, 0.218018
 4230, 725.001, 0.975, 1.36441e-11, 5.45763e-07, 0.218018
 4236, 726.001, 0.975, 1.43341e-11, 5.73362e-07, 0.218018
 4242, 727.001, 0.975, 1.50574e-11, 6.02298e-07, 0.218018
 4248, 728.001, 0.975, 1.58158e-11, 6.32632e-07, 0.218018
 4254, 729.001, 0.975, 1.66107e-11, 6.64428e-07, 0.218018
 4260, 730.001, 0.975, 1.74439e-11, 6.97754e-07, 0.218018
 4266, 731.001, 0.975, 1.8317e-11, 7.32681e-07, 0.218018
 4272, 732.001, 0.975, 1.9232e-11, 7.69281e-07, 0.218018
 4278, 733.001, 0.975, 2.01908e-11, 8.07631e-07, 0.218018
 4284, 734.001, 0.975, 2.11953e-11, 8.4781e-07, 0.218018
 4290, 735.001, 0.975, 2.22476e-11, 8.89903e-07, 0.218018
 4296, 736.001, 0.975, 2.33499e-11, 9.33997e-07, 0.218018
 4302, 737.001, 0.975, 2.45045e-11, 9.80181e-07, 0.218018
 4308, 738.001, 0.975, 2.57138e-11, 1.02855e-06, 0.218018
 4314, 739.001, 0.975, 2.69801e-11, 1.0792e-06, 0.218018
 4320, 740.001, 0.975, 2.83061e-11, 1.13225e-06, 0.218018
 4326, 741.001, 0.975, 2.96945e-11, 1.18778e-06, 0.218018
 4332, 742.001, 0.975, 3.11481e-11, 1.24592e-06, 0.218018
 4338, 743.001, 0.975, 3.26697e-11, 1.30679e-06, 0.218018
 4344, 744.001, 0.975, 3.42624e-11, 1.3705e-06, 0.218018
 4350, 745.001, 0.975, 3.59295e-11, 1.43718e-06, 0.218018
 4356, 746.001, 0.975, 3.76741e-11, 1.50696e-06, 0.218018
 4362, 747.001, 0.975, 3.94998e-11, 1.57999e-06, 0.218018
 4368, 748.001, 0.975, 4.14101e-11, 1.6564e-06, 0.218018
 4374, 749.001, 0.975, 4.34088e-11, 1.73635e-06, 0.218018
 4380, 750.001, 0.975, 4.54997e-11, 1.81999e-06, 0.218018
 4386, 751.001, 0.975, 4.7687e-11, 1.90748e-06, 0.218018
 4392, 752.001, 0.975, 4.99749e-11, 1.999e-06, 0.218018
 4398, 753.001, 0.975, 5.23678e-11, 2.09471e-06, 0.218018
 4404, 754.001, 0.975, 5.48702e-11, 2.19481e-06, 0.218018
 4410, 755.001, 0.975, 5.7487e-11, 2.29948e-06, 0.218018
 4416, 756.001, 0.975, 6.02231e-11, 2.40892e-06, 0.218018
 4422, 757.001, 0.975, 6.30838e-11, 2.52335e-06, 0.218018
 4428, 758.001, 0.975, 6.60744e-11, 2.64298e-06, 0.218018
 4434, 759.001, 0.975, 6.92006e-11, 2.76802e-06, 0.218018
 4440, 760.001, 0.975, 7.24681e-11, 2.89873e-06, 0.218018
 4446, 761.001, 0.975, 7.58833e-11, 3.03533e-06, 0.218018
 4452, 762.001, 0.975, 7.94522e-11, 3.17809e-06, 0.218019
 4458, 763.001, 0.975, 8.31817e-11, 3.32727e-06, 0.218018
 4464, 764.001, 0.975, 8.70785e-11, 3.48314e-06, 0.218018
 4470, 765.001, 0.975, 9.11498e-11, 3.64599e-06, 0.218018
 4476, 766.001, 0.975, 9.54031e-11, 3.81613e-06, 0.218018
 4482, 767.001, 0.975, 9.98461e-11, 3.99385e-06, 0.218018
 4488, 768.001, 0.975, 1.04487e-10, 4.17948e-06, 0.218018
 4494, 769.001, 0.975, 1.09334e-10, 4.37335e-06, 0.218018
 4500, 770.001, 0.975, 1.14396e-10, 4.57583e-06, 0.218018
 4506, 771.001, 0.975, 1.19682e-10, 4.78726e-06, 0.218018
 4512, 772.001, 0.975, 1.25201e-10, 5.00803e-06, 0.218018
 4518, 773.001, 0.975, 1.30963e-10, 5.23853e-06, 0.218018
 4524, 774.001, 0.975, 1.36979e-10, 5.47917e-06, 0.218018
 4530, 775.001, 0.975, 1.43259e-10, 5.73037e-06, 0.218018
 4536, 776.001, 0.975, 1.49814e-10, 5.99257e-06, 0.218018
 4542, 777.001, 0.975, 1.56656e-10, 6.26624e-06, 0.218018
 4548, 778.001, 0.975, 1.63796e-10, 6.55185e-06, 0.218019
 4554, 779.001, 0.975, 1.71247e-10, 6.84989e-06, 0.218019
 4560, 780.001, 0.975, 1.79022e-10, 7.16089e-06, 0.218018
 4566, 781.001, 0.975, 1.87135e-10, 7.48538e-06, 0.218018
 4572, 782.001, 0.975, 1.95598e-10, 7.82392e-06, 0.218018
 4578, 783.001, 0.975, 2.04427e-10, 8.17708e-06, 0.218019
 4584, 784.001, 0.975, 2.13637e-10, 8.54547e-06, 0.218018
 4590, 785.001, 0.975, 2.23243e-10, 8.92971e-06, 0.218018
 4596, 786.001, 0.975, 2.33261e-10, 9.33045e-06, 0.218018
 4602, 787.001, 0.975, 2.43709e-10, 9.74837e-06, 0.218018
 4608, 788.001, 0.975, 2.54604e-10, 1.01842e-05, 0.218018
 4614, 789.001, 0.975, 2.65964e-10, 1.06386e-05, 0.218019
 4620, 790.001, 0.975, 2.77809e-10, 1.11123e-05, 0.218018
 4626, 791.001, 0.975, 2.90157e-10, 1.16063e-05, 0.218018
 4632, 792.001, 0.975, 3.03028e-10, 1.21211e-05, 0.218018
 4638, 793.001, 0.975, 3.16446e-10, 1.26578e-05, 0.218019
 4644, 794.001, 0.975, 3.3043e-10, 1.32172e-05, 0.218018
 4650, 795.001, 0.975, 3.45005e-10, 1.38002e-05, 0.218019
 4656, 796.001, 0.975, 3.60193e-10, 1.44077e-05, 0.218019
 4662, 797.001, 0.975, 3.7602e-10, 1.50408e-05, 0.218018
 4668, 798.001, 0.975, 3.9251e-10, 1.57004e-05, 0.218019
 4674, 799.001, 0.975, 4.09691e-10, 1.63876e-05, 0.218018
 4680, 800.001, 0.975, 4.2759e-10, 1.71036e-05, 0.218018