File: examples/Generic/tga-mcc/generic_1_tga_30_tga.csv
Time,Temp,Mass,MLR,MCC,DSC
 2, 21.0021, 0.999999, 4.7987e-07, 2.07928e-13, 0.743216
 4, 22.0021, 0.999998, 5.5116e-07, 2.55954e-13, 0.743375
 6, 23.0021, 0.999997, 6.32448e-07, 3.14631e-13, 0.743556
 8, 24.0021, 0.999996, 7.25049e-07, 3.86222e-13, 0.743763
 10, 25.0021, 0.999994, 8.30443e-07, 4.73451e-13, 0.743998
 12, 26.0021, 0.999992, 9.5029e-07, 5.79593e-13, 0.744266
 14, 27.0021, 0.99999, 1.08645e-06, 7.08574e-13, 0.74457
 16, 28.0021, 0.999988, 1.241e-06, 8.65103e-13, 0.744915
 18, 29.0021, 0.999985, 1.41629e-06, 1.05482e-12, 0.745306
 20, 30.0021, 0.999982, 1.6149e-06, 1.28445e-12, 0.745749
 22, 31.0021, 0.999979, 1.83976e-06, 1.56206e-12, 0.746251
 24, 32.0021, 0.999975, 2.09412e-06, 1.89723e-12, 0.746818
 26, 33.0021, 0.99997, 2.38159e-06, 2.30139e-12, 0.747459
 28, 34.0021, 0.999965, 2.70622e-06, 2.78815e-12, 0.748183
 30, 35.0021, 0.999959, 3.0725e-06, 3.37365e-12, 0.749
 32, 36.0021, 0.999953, 3.48541e-06, 4.07709e-12, 0.749921
 34, 37.0021, 0.999945, 3.95052e-06, 4.92118e-12, 0.750958
 36, 38.0021, 0.999937, 4.47399e-06, 5.93286e-12, 0.752125
 38, 39.0021, 0.999928, 5.06263e-06, 7.14395e-12, 0.753438
 40, 40.0021, 0.999917, 5.72402e-06, 8.59209e-12, 0.754912
 42, 41.0021, 0.999905, 6.46653e-06, 1.03217e-11, 0.756567
 44, 42.0021, 0.999891, 7.29941e-06, 1.2385e-11, 0.758423
 46, 43.0021, 0.999875, 8.2329e-06, 1.48437e-11, 0.760503
 48, 44.0021, 0.999858, 9.27825e-06, 1.77702e-11, 0.762832
 50, 45.0021, 0.999838, 1.04479e-05, 2.12497e-11, 0.765438
 52, 46.0021, 0.999816, 1.17555e-05, 2.53821e-11, 0.768351
 54, 47.0021, 0.999791, 1.32161e-05, 3.02846e-11, 0.771604
 56, 48.0021, 0.999763, 1.48462e-05, 3.60944e-11, 0.775235
 58, 49.0021, 0.999731, 1.66638e-05, 4.29721e-11, 0.779282
 60, 50.0021, 0.999696, 1.86888e-05, 5.11053e-11, 0.783791
 62, 51.0021, 0.999656, 2.09428e-05, 6.07131e-11, 0.788809
 64, 52.0021, 0.999612, 2.34494e-05, 7.20512e-11, 0.794389
 66, 53.0021, 0.999563, 2.62342e-05, 8.54175e-11, 0.800587
 68, 54.0021, 0.999507, 2.93251e-05, 1.01159e-10, 0.807466
 70, 55.0021, 0.999445, 3.27526e-05, 1.19678e-10, 0.815093
 72, 56.0021, 0.999376, 3.65493e-05, 1.41444e-10, 0.823541
 74, 57.0021, 0.999298, 4.07506e-05, 1.67002e-10, 0.832887
 76, 58.0021, 0.999212, 4.53947e-05, 1.96981e-10, 0.843217
 78, 59.0021, 0.999116, 5.05223e-05, 2.32114e-10, 0.85462
 80, 60.0021, 0.99901, 5.61772e-05, 2.73247e-10, 0.867194
 82, 61.002, 0.998891, 6.24059e-05, 3.21359e-10, 0.881042
 84, 62.002, 0.99876, 6.92579e-05, 3.77583e-10, 0.896273
 86, 63.002, 0.998614, 7.67853e-05, 4.43224e-10, 0.913003
 88, 64.002, 0.998452, 8.5043e-05, 5.19791e-10, 0.931352
 90, 65.002, 0.998273, 9.4088e-05, 6.09022e-10, 0.951446
 92, 66.002, 0.998075, 0.00010398, 7.12919e-10, 0.973417
 94, 67.002, 0.997856, 0.000114779, 8.33787e-10, 0.997398
 96, 68.002, 0.997615, 0.000126548, 9.74275e-10, 1.02353
 98, 69.002, 0.997349, 0.000139348, 1.13743e-09, 1.05194
 100, 70.0019, 0.997057, 0.000153241, 1.32675e-09, 1.08276
 102, 71.0019, 0.996735, 0.000168286, 1.54624e-09, 1.11614
 104, 72.0019, 0.996383, 0.00018454, 1.80051e-09, 1.15218
 106, 73.0019, 0.995996, 0.000202055, 2.09482e-09, 1.19101
 108, 74.0019, 0.995574, 0.000220875, 2.43521e-09, 1.23271
 110, 75.0018, 0.995112, 0.000241035, 2.82859e-09, 1.27737
 112, 76.0018, 0.994608, 0.000262559, 3.28284e-09, 1.32502
 114, 77.0018, 0.99406, 0.000285455, 3.80699e-09, 1.37568
 116, 78.0018, 0.993465, 0.000309716, 4.41133e-09, 1.42934
 118, 79.0017, 0.99282, 0.000335309, 5.10761e-09, 1.4859
 120, 80.0017, 0.992123, 0.000362179, 5.90923e-09, 1.54524
 122, 81.0017, 0.991371, 0.00039024, 6.83144e-09, 1.60716
 124, 82.0016, 0.990561, 0.000419374, 7.89164e-09, 1.67139
 126, 83.0016, 0.989692, 0.000449424, 9.10959e-09, 1.73757
 128, 84.0016, 0.988762, 0.000480193, 1.05078e-08, 1.80524
 130, 85.0015, 0.987771, 0.000511438, 1.21117e-08, 1.87386
 132, 86.0015, 0.986716, 0.000542873, 1.39505e-08, 1.94278
 134, 87.0015, 0.985599, 0.000574159, 1.6057e-08, 2.01123
 136, 88.0014, 0.98442, 0.000604913, 1.84684e-08, 2.07834
 138, 89.0014, 0.98318, 0.000634705, 2.12271e-08, 2.14314
 140, 90.0014, 0.981882, 0.000663064, 2.43809e-08, 2.20458
 142, 91.0013, 0.980529, 0.000689482, 2.79837e-08, 2.26151
 144, 92.0013, 0.979125, 0.00071343, 3.20967e-08, 2.31274
 146, 93.0013, 0.977677, 0.000734362, 3.67886e-08, 2.35705
 148, 94.0013, 0.97619, 0.000751738, 4.21373e-08, 2.39323
 150, 95.0013, 0.974672, 0.000765037, 4.823e-08, 2.42012
 152, 96.0013, 0.973133, 0.000773781, 5.51651e-08, 2.43666
 154, 97.0013, 0.97158, 0.000777555, 6.30532e-08, 2.44192
 156, 98.0013, 0.970026, 0.000776027, 7.20183e-08, 2.43518
 158, 99.0013, 0.96848, 0.000768973, 8.21995e-08, 2.41595
 160, 100.001, 0.966954, 0.000756294, 9.37526e-08, 2.38403
 162, 101.001, 0.965459, 0.000738031, 1.06852e-07, 2.33955
 164, 102.001, 0.964005, 0.000714373, 1.21693e-07, 2.28294
 166, 103.001, 0.962605, 0.000685659, 1.38493e-07, 2.21501
 168, 104.001, 0.961266, 0.000652378, 1.57495e-07, 2.13688
 170, 105.001, 0.959998, 0.000615147, 1.78972e-07, 2.04996
 172, 106.001, 0.958808, 0.000574697, 2.03225e-07, 1.95592
 174, 107.002, 0.957701, 0.000531838, 2.30592e-07, 1.85662
 176, 108.002, 0.956682, 0.000487434, 2.61448e-07, 1.754
 178, 109.002, 0.955753, 0.00044236, 2.96213e-07, 1.65006
 180, 110.002, 0.954913, 0.000397467, 3.35353e-07, 1.54672
 182, 111.002, 0.954163, 0.000353549, 3.79385e-07, 1.44578
 184, 112.002, 0.953498, 0.000311311, 4.28886e-07, 1.34883
 186, 113.002, 0.952916, 0.000271349, 4.84498e-07, 1.25719
 188, 114.002, 0.952411, 0.000234129, 5.46934e-07, 1.17193
 190, 115.002, 0.951978, 0.000199988, 6.16985e-07, 1.09378
 192, 116.002, 0.95161, 0.000169127, 6.95532e-07, 1.0232
 194, 117.002, 0.9513, 0.000141625, 7.83549e-07, 0.960335
 196, 118.002, 0.951041, 0.000117452, 8.8212e-07, 0.905112
 198, 119.002, 0.950828, 9.64853e-05, 9.92446e-07, 0.857237
 200, 120.002, 0.950653, 7.85313e-05, 1.11586e-06, 0.81626
 202, 121.002, 0.950512, 6.33461e-05, 1.25382e-06, 0.781617
 204, 122.002, 0.950398, 5.06545e-05, 1.40798e-06, 0.752672
 206, 123.002, 0.950308, 4.01671e-05, 1.58012e-06, 0.728762
 208, 124.002, 0.950237, 3.15951e-05, 1.77224e-06, 0.709225
 210, 125.002, 0.950181, 2.46614e-05, 1.98655e-06, 0.693426
 212, 126.002, 0.950137, 1.9108e-05, 2.22547e-06, 0.680775
 214, 127.002, 0.950104, 1.47019e-05, 2.49168e-06, 0.67074
 216, 128.002, 0.950078, 1.1237e-05, 2.78815e-06, 0.66285
 218, 129.002, 0.950058, 8.53517e-06, 3.11812e-06, 0.656698
 220, 130.002, 0.950043, 6.44491e-06, 3.4852e-06, 0.65194
 222, 131.002, 0.950032, 4.83979e-06, 3.89332e-06, 0.648286
 224, 132.002, 0.950024, 3.61576e-06, 4.34686e-06, 0.645501
 226, 133.002, 0.950017, 2.6884e-06, 4.85058e-06, 0.643391
 228, 134.002, 0.950013, 1.99003e-06, 5.40974e-06, 0.641802
 230, 135.002, 0.950009, 1.46707e-06, 6.03014e-06, 0.640612
 232, 136.002, 0.950007, 1.07748e-06, 6.71811e-06, 0.639726
 234, 137.002, 0.950005, 7.88634e-07, 7.48062e-06, 0.639068
 236, 138.002, 0.950004, 5.75431e-07, 8.32532e-06, 0.638583
 238, 139.002, 0.950003, 4.18696e-07, 9.26059e-06, 0.638227
 240, 140.002, 0.950002, 3.039e-07, 1.02956e-05, 0.637966
 242, 141.002, 0.950001, 2.20105e-07, 1.14405e-05, 0.637775
 244, 142.002, 0.950001, 1.59128e-07, 1.27062e-05, 0.637636
 246, 143.002, 0.950001, 1.14883e-07, 1.41048e-05, 0.637536
 248, 144.002, 0.95, 8.28603e-08, 1.56495e-05, 0.637463
 250, 145.002, 0.95, 5.9741e-08, 1.73547e-05, 0.63741
 252, 146.002, 0.95, 4.30881e-08, 1.92363e-05, 0.637372
 254, 147.002, 0.95, 3.11206e-08, 2.13115e-05, 0.637345
 256, 148.002, 0.95, 2.25407e-08, 2.3599e-05, 0.637325
 258, 149.002, 0.95, 1.64062e-08, 2.61194e-05, 0.637311
 260, 150.002, 0.95, 1.20345e-08, 2.88951e-05, 0.637301
 262, 151.002, 0.95, 8.93272e-09, 3.19507e-05, 0.637294
 264, 152.002, 0.95, 6.74546e-09, 3.53126e-05, 0.637289
 266, 153.002, 0.95, 5.21725e-09, 3.90099e-05, 0.637285
 268, 154.002, 0.95, 4.16476e-09, 4.30743e-05, 0.637283
 270, 155.002, 0.95, 3.45676e-09, 4.75401e-05, 0.637281
 272, 156.002, 0.95, 2.99951e-09, 5.24448e-05, 0.63728
 274, 157.002, 0.95, 2.7263e-09, 5.78291e-05, 0.637279
 276, 158.002, 0.95, 2.58981e-09, 6.37373e-05, 0.637278
 278, 159.002, 0.95, 2.55667e-09, 7.02175e-05, 0.637278
 280, 160.002, 0.95, 2.60354e-09, 7.7322e-05, 0.637278
 282, 161.002, 0.95, 2.7143e-09, 8.51075e-05, 0.637277
 284, 162.002, 0.95, 2.87803e-09, 9.36356e-05, 0.637277
 286, 163.002, 0.95, 3.08758e-09, 0.000102973, 0.637277
 288, 164.002, 0.95, 3.33857e-09, 0.000113193, 0.637278
 290, 165.002, 0.95, 3.62861e-09, 0.000124373, 0.637278
 292, 166.002, 0.95, 3.95683e-09, 0.000136598, 0.637278
 294, 167.002, 0.95, 4.32351e-09, 0.000149962, 0.637278
 296, 168.002, 0.95, 4.72982e-09, 0.000164563, 0.637278
 298, 169.002, 0.95, 5.17763e-09, 0.00018051, 0.637279
 300, 170.002, 0.95, 5.66943e-09, 0.000197919, 0.637279
 302, 171.002, 0.95, 6.2082e-09, 0.000216918, 0.637279
 304, 172.002, 0.95, 6.79741e-09, 0.000237643, 0.63728
 306, 173.002, 0.95, 7.44097e-09, 0.000260241, 0.63728
 308, 174.002, 0.95, 8.1432e-09, 0.000284872, 0.637281
 310, 175.002, 0.95, 8.90887e-09, 0.000311709, 0.637281
 312, 176.002, 0.95, 9.74317e-09, 0.000340937, 0.637282
 314, 177.002, 0.95, 1.06518e-08, 0.000372758, 0.637282
 316, 178.002, 0.95, 1.16407e-08, 0.000407387, 0.637283
 318, 179.002, 0.95, 1.27168e-08, 0.000445058, 0.637284
 320, 180.002, 0.95, 1.3887e-08, 0.000486023, 0.637284
 322, 181.002, 0.95, 1.51591e-08, 0.000530553, 0.637285
 324, 182.002, 0.95, 1.65414e-08, 0.00057894, 0.637286
 326, 183.002, 0.95, 1.8043e-08, 0.000631497, 0.637287
 328, 184.002, 0.95, 1.96734e-08, 0.000688565, 0.637288
 330, 185.002, 0.95, 2.14431e-08, 0.000750505, 0.637289
 332, 186.002, 0.949999, 2.33633e-08, 0.000817711, 0.63729
 334, 187.002, 0.949999, 2.54459e-08, 0.000890603, 0.637292
 336, 188.002, 0.949999, 2.77039e-08, 0.000969634, 0.637293
 338, 189.002, 0.949999, 3.01511e-08, 0.00105529, 0.637295
 340, 190.002, 0.949999, 3.28026e-08, 0.00114809, 0.637297
 342, 191.002, 0.949999, 3.56743e-08, 0.0012486, 0.637298
 344, 192.002, 0.949999, 3.87834e-08, 0.00135742, 0.637301
 346, 193.002, 0.949999, 4.21483e-08, 0.00147519, 0.637303
 348, 194.002, 0.949999, 4.57889e-08, 0.00160261, 0.637305
 350, 195.002, 0.949999, 4.97263e-08, 0.00174042, 0.637308
 352, 196.002, 0.949999, 5.39833e-08, 0.00188941, 0.63731
 354, 197.002, 0.949999, 5.85842e-08, 0.00205045, 0.637313
 356, 198.002, 0.949998, 6.35553e-08, 0.00222443, 0.637317
 358, 199.002, 0.949998, 6.89243e-08, 0.00241235, 0.63732
 360, 200.002, 0.949998, 7.47213e-08, 0.00261524, 0.637324
 362, 201.002, 0.949998, 8.09782e-08, 0.00283424, 0.637328
 364, 202.002, 0.949998, 8.77293e-08, 0.00307053, 0.637332
 366, 203.002, 0.949998, 9.50114e-08, 0.0033254, 0.637337
 368, 204.002, 0.949998, 1.02863e-07, 0.00360022, 0.637342
 370, 205.002, 0.949997, 1.11327e-07, 0.00389646, 0.637348
 372, 206.002, 0.949997, 1.20448e-07, 0.00421568, 0.637354
 374, 207.002, 0.949997, 1.30273e-07, 0.00455956, 0.63736
 376, 208.002, 0.949997, 1.40854e-07, 0.00492988, 0.637367
 378, 209.002, 0.949996, 1.52244e-07, 0.00532855, 0.637374
 380, 210.002, 0.949996, 1.64503e-07, 0.00575761, 0.637382
 382, 211.002, 0.949996, 1.77692e-07, 0.00621922, 0.637391
 384, 212.002, 0.949995, 1.91877e-07, 0.0067157, 0.6374
 386, 213.002, 0.949995, 2.07129e-07, 0.00724953, 0.63741
 388, 214.002, 0.949994, 2.23523e-07, 0.00782332, 0.637421
 390, 215.002, 0.949994, 2.4114e-07, 0.0084399, 0.637432
 392, 216.002, 0.949993, 2.60064e-07, 0.00910224, 0.637444
 394, 217.002, 0.949993, 2.80387e-07, 0.00981353, 0.637458
 396, 218.002, 0.949992, 3.02204e-07, 0.0105772, 0.637472
 398, 219.002, 0.949992, 3.25621e-07, 0.0113967, 0.637487
 400, 220.002, 0.949991, 3.50745e-07, 0.0122761, 0.637503
 402, 221.002, 0.94999, 3.77694e-07, 0.0132193, 0.637521
 404, 222.002, 0.94999, 4.06592e-07, 0.0142307, 0.63754
 406, 223.002, 0.949989, 4.37571e-07, 0.015315, 0.63756
 408, 224.002, 0.949988, 4.7077e-07, 0.016477, 0.637581
 410, 225.002, 0.949987, 5.06339e-07, 0.0177219, 0.637604
 412, 226.002, 0.949986, 5.44436e-07, 0.0190553, 0.637629
 414, 227.002, 0.949985, 5.8523e-07, 0.020483, 0.637656
 416, 228.002, 0.949983, 6.28898e-07, 0.0220114, 0.637684
 418, 229.002, 0.949982, 6.7563e-07, 0.023647, 0.637714
 420, 230.002, 0.949981, 7.25627e-07, 0.0253969, 0.637747
 422, 231.002, 0.949979, 7.79102e-07, 0.0272686, 0.637781
 424, 232.002, 0.949978, 8.36282e-07, 0.0292699, 0.637818
 426, 233.002, 0.949976, 8.97406e-07, 0.0314092, 0.637858
 428, 234.002, 0.949974, 9.62728e-07, 0.0336955, 0.6379
 430, 235.002, 0.949972, 1.03252e-06, 0.0361381, 0.637946
 432, 236.002, 0.94997, 1.10706e-06, 0.0387471, 0.637994
 434, 237.002, 0.949968, 1.18666e-06, 0.041533, 0.638046
 436, 238.002, 0.949965, 1.27163e-06, 0.0445071, 0.638101
 438, 239.002, 0.949962, 1.36232e-06, 0.0476812, 0.63816
 440, 240.002, 0.94996, 1.45908e-06, 0.0510678, 0.638222
 442, 241.002, 0.949957, 1.56229e-06, 0.0546802, 0.638289
 444, 242.002, 0.949953, 1.67236e-06, 0.0585325, 0.63836
 446, 243.002, 0.94995, 1.7897e-06, 0.0626395, 0.638436
 448, 244.002, 0.949946, 1.91477e-06, 0.0670169, 0.638517
 450, 245.002, 0.949942, 2.04804e-06, 0.0716813, 0.638604
 452, 246.002, 0.949938, 2.19001e-06, 0.0766503, 0.638696
 454, 247.002, 0.949933, 2.34121e-06, 0.0819423, 0.638794
 456, 248.002, 0.949929, 2.5022e-06, 0.0875769, 0.638898
 458, 249.002, 0.949923, 2.67357e-06, 0.0935748, 0.639009
 460, 250.002, 0.949918, 2.85594e-06, 0.0999578, 0.639127
 462, 251.002, 0.949912, 3.04997e-06, 0.106749, 0.639252
 464, 252.002, 0.949906, 3.25635e-06, 0.113972, 0.639386
 466, 253.002, 0.949899, 3.47582e-06, 0.121654, 0.639528
 468, 254.002, 0.949892, 3.70914e-06, 0.12982, 0.639679
 470, 255.002, 0.949884, 3.95713e-06, 0.138499, 0.639839
 472, 256.002, 0.949876, 4.22064e-06, 0.147722, 0.64001
 474, 257.002, 0.949867, 4.50058e-06, 0.15752, 0.640191
 476, 258.002, 0.949858, 4.79789e-06, 0.167926, 0.640383
 478, 259.002, 0.949848, 5.11358e-06, 0.178975, 0.640587
 480, 260.002, 0.949838, 5.4487e-06, 0.190705, 0.640804
 482, 261.002, 0.949826, 5.80436e-06, 0.203153, 0.641033
 484, 262.002, 0.949814, 6.18172e-06, 0.21636, 0.641277
 486, 263.002, 0.949801, 6.58201e-06, 0.23037, 0.641536
 488, 264.002, 0.949788, 7.00652e-06, 0.245228, 0.64181
 490, 265.002, 0.949773, 7.4566e-06, 0.260981, 0.642101
 492, 266.002, 0.949758, 7.93369e-06, 0.277679, 0.642409
 494, 267.002, 0.949742, 8.43926e-06, 0.295374, 0.642736
 496, 268.002, 0.949724, 8.9749e-06, 0.314122, 0.643082
 498, 269.002, 0.949706, 9.54226e-06, 0.333979, 0.643448
 500, 270.002, 0.949686, 1.01431e-05, 0.355007, 0.643836
 502, 271.002, 0.949665, 1.07791e-05, 0.377269, 0.644246
 504, 272.002, 0.949643, 1.14523e-05, 0.400832, 0.644681
 506, 273.002, 0.949619, 1.21647e-05, 0.425765, 0.645141
 508, 274.002, 0.949594, 1.29183e-05, 0.452142, 0.645627
 510, 275.002, 0.949568, 1.37154e-05, 0.48004, 0.646141
 512, 276.002, 0.949539, 1.45582e-05, 0.509539, 0.646685
 514, 277.002, 0.949509, 1.54492e-05, 0.540722, 0.647259
 516, 278.002, 0.949477, 1.63908e-05, 0.573679, 0.647867
 518, 279.002, 0.949444, 1.73857e-05, 0.6085, 0.648508
 520, 280.002, 0.949408, 1.84367e-05, 0.645284, 0.649186
 522, 281.002, 0.94937, 1.95465e-05, 0.684129, 0.649901
 524, 282.002, 0.94933, 2.07183e-05, 0.725141, 0.650656
 526, 283.002, 0.949287, 2.19551e-05, 0.76843, 0.651453
 528, 284.002, 0.949242, 2.32603e-05, 0.814111, 0.652294
 530, 285.002, 0.949194, 2.46372e-05, 0.862303, 0.653181
 532, 286.002, 0.949143, 2.60894e-05, 0.913132, 0.654117
 534, 287.002, 0.949089, 2.76207e-05, 0.966726, 0.655103
 536, 288.002, 0.949033, 2.92349e-05, 1.02322, 0.656142
 538, 289.002, 0.948972, 3.0936e-05, 1.08276, 0.657237
 540, 290.002, 0.948909, 3.27282e-05, 1.14549, 0.658391
 542, 291.002, 0.948841, 3.46159e-05, 1.21156, 0.659606
 544, 292.002, 0.94877, 3.66036e-05, 1.28113, 0.660885
 546, 293.002, 0.948695, 3.8696e-05, 1.35436, 0.662231
 548, 294.002, 0.948615, 4.08981e-05, 1.43144, 0.663648
 550, 295.002, 0.948531, 4.32149e-05, 1.51253, 0.665138
 552, 296.002, 0.948442, 4.56516e-05, 1.59781, 0.666705
 554, 297.002, 0.948349, 4.82138e-05, 1.68749, 0.668352
 556, 298.002, 0.948249, 5.0907e-05, 1.78175, 0.670084
 558, 299.002, 0.948145, 5.3737e-05, 1.8808, 0.671903
 560, 300.002, 0.948034, 5.671e-05, 1.98486, 0.673813
 562, 301.002, 0.947918, 5.98321e-05, 2.09413, 0.675819
 564, 302.002, 0.947795, 6.31097e-05, 2.20885, 0.677924
 566, 303.002, 0.947665, 6.65496e-05, 2.32925, 0.680134
 568, 304.002, 0.947529, 7.01584e-05, 2.45556, 0.682451
 570, 305.002, 0.947384, 7.39432e-05, 2.58803, 0.68488
 572, 306.002, 0.947233, 7.79111e-05, 2.72691, 0.687427
 574, 307.002, 0.947073, 8.20696e-05, 2.87246, 0.690096
 576, 308.002, 0.946904, 8.64263e-05, 3.02495, 0.692891
 578, 309.002, 0.946727, 9.09888e-05, 3.18464, 0.695817
 580, 310.002, 0.94654, 9.5765e-05, 3.35181, 0.69888
 582, 311.002, 0.946343, 0.000100763, 3.52675, 0.702084
 584, 312.002, 0.946137, 0.000105991, 3.70973, 0.705435
 586, 313.002, 0.945919, 0.000111458, 3.90106, 0.708938
 588, 314.002, 0.945691, 0.000117171, 4.10103, 0.712598
 590, 315.002, 0.94545, 0.000123139, 4.30994, 0.71642
 592, 316.002, 0.945198, 0.000129372, 4.52809, 0.720411
 594, 317.002, 0.944933, 0.000135877, 4.75579, 0.724575
 596, 318.002, 0.944654, 0.000142664, 4.99334, 0.728918
 598, 319.002, 0.944362, 0.000149741, 5.24105, 0.733445
 600, 320.002, 0.944055, 0.000157117, 5.49923, 0.738162
 602, 321.002, 0.943733, 0.000164801, 5.76818, 0.743074
 604, 322.002, 0.943395, 0.000172801, 6.04821, 0.748187
 606, 323.002, 0.943041, 0.000181127, 6.33961, 0.753505
 608, 324.002, 0.942671, 0.000189785, 6.64269, 0.759035
 610, 325.002, 0.942282, 0.000198785, 6.95772, 0.76478
 612, 326.002, 0.941875, 0.000208135, 7.28499, 0.770746
 614, 327.002, 0.941449, 0.000217842, 7.62476, 0.776937
 616, 328.002, 0.941003, 0.000227913, 7.9773, 0.783359
 618, 329.002, 0.940537, 0.000238356, 8.34284, 0.790014
 620, 330.002, 0.94005, 0.000249177, 8.72163, 0.796907
 622, 331.002, 0.93954, 0.000260382, 9.11386, 0.804041
 624, 332.002, 0.939008, 0.000271976, 9.51973, 0.811419
 626, 333.002, 0.938452, 0.000283965, 9.93941, 0.819044
 628, 334.002, 0.937872, 0.000296352, 10.373, 0.826918
 630, 335.002, 0.937266, 0.000309142, 10.8208, 0.835043
 632, 336.002, 0.936635, 0.000322335, 11.2826, 0.843419
 634, 337.002, 0.935976, 0.000335934, 11.7587, 0.852048
 636, 338.002, 0.93529, 0.00034994, 12.249, 0.860928
 638, 339.002, 0.934576, 0.000364352, 12.7536, 0.87006
 640, 340.002, 0.933833, 0.000379168, 13.2723, 0.87944
 642, 341.002, 0.933059, 0.000394387, 13.8052, 0.889068
 644, 342.002, 0.932255, 0.000410002, 14.3519, 0.898939
 646, 343.002, 0.931419, 0.00042601, 14.9124, 0.909048
 648, 344.002, 0.93055, 0.000442404, 15.4864, 0.919392
 650, 345.002, 0.929649, 0.000459174, 16.0737, 0.929963
 652, 346.002, 0.928713, 0.000476312, 16.6738, 0.940754
 654, 347.002, 0.927743, 0.000493806, 17.2864, 0.951757
 656, 348.002, 0.926737, 0.000511642, 17.9111, 0.962963
 658, 349.002, 0.925696, 0.000529807, 18.5472, 0.974361
 660, 350.002, 0.924618, 0.000548283, 19.1944, 0.985939
 662, 351.002, 0.923502, 0.000567053, 19.8518, 0.997685
 664, 352.002, 0.922349, 0.000586096, 20.5189, 1.00958
 666, 353.002, 0.921158, 0.000605392, 21.1949, 1.02162
 668, 354.002, 0.919927, 0.000624917, 21.879, 1.03378
 670, 355.002, 0.918658, 0.000644646, 22.5703, 1.04605
 672, 356.002, 0.917348, 0.000664552, 23.2679, 1.0584
 674, 357.002, 0.915999, 0.000684608, 23.9708, 1.07082
 676, 358.002, 0.91461, 0.000704785, 24.678, 1.08328
 678, 359.002, 0.91318, 0.00072505, 25.3884, 1.09577
 680, 360.002, 0.911709, 0.000745372, 26.101, 1.10826
 682, 361.002, 0.910198, 0.000765718, 26.8145, 1.12074
 684, 362.002, 0.908646, 0.000786053, 27.5277, 1.13317
 686, 363.002, 0.907054, 0.000806342, 28.2395, 1.14553
 688, 364.002, 0.905421, 0.000826549, 28.9486, 1.1578
 690, 365.002, 0.903747, 0.000846637, 29.6537, 1.16995
 692, 366.002, 0.902034, 0.00086657, 30.3535, 1.18195
 694, 367.002, 0.900281, 0.000886311, 31.0469, 1.19379
 696, 368.002, 0.898489, 0.000905822, 31.7324, 1.20544
 698, 369.002, 0.896658, 0.000925068, 32.4088, 1.21686
 700, 370.002, 0.894788, 0.000944012, 33.075, 1.22804
 702, 371.002, 0.892882, 0.000962618, 33.7296, 1.23895
 704, 372.002, 0.890938, 0.000980854, 34.3715, 1.24957
 706, 373.002, 0.888958, 0.000998684, 34.9996, 1.25988
 708, 374.002, 0.886943, 0.00101608, 35.6127, 1.26984
 710, 375.002, 0.884894, 0.00103301, 36.2099, 1.27945
 712, 376.002, 0.882812, 0.00104944, 36.7902, 1.28868
 714, 377.002, 0.880697, 0.00106535, 37.3526, 1.29751
 716, 378.002, 0.87855, 0.00108072, 37.8965, 1.30592
 718, 379.002, 0.876374, 0.00109552, 38.421, 1.31391
 720, 380.002, 0.874169, 0.00110974, 38.9255, 1.32145
 722, 381.002, 0.871935, 0.00112336, 39.4095, 1.32854
 724, 382.002, 0.869675, 0.00113636, 39.8726, 1.33515
 726, 383.002, 0.86739, 0.00114873, 40.3143, 1.3413
 728, 384.002, 0.865081, 0.00116047, 40.7346, 1.34696
 730, 385.002, 0.862749, 0.00117158, 41.1333, 1.35213
 732, 386.002, 0.860395, 0.00118205, 41.5104, 1.35682
 734, 387.002, 0.858021, 0.00119188, 41.8659, 1.36101
 736, 388.002, 0.855628, 0.00120108, 42.2002, 1.36472
 738, 389.002, 0.853217, 0.00120966, 42.5135, 1.36794
 740, 390.002, 0.850789, 0.00121762, 42.8062, 1.37068
 742, 391.002, 0.848347, 0.00122499, 43.079, 1.37295
 744, 392.002, 0.84589, 0.00123177, 43.3324, 1.37476
 746, 393.002, 0.84342, 0.001238, 43.5673, 1.37611
 748, 394.002, 0.840938, 0.00124368, 43.7843, 1.37702
 750, 395.002, 0.838445, 0.00124885, 43.9846, 1.3775
 752, 396.002, 0.835943, 0.00125354, 44.169, 1.37757
 754, 397.002, 0.833431, 0.00125777, 44.3387, 1.37724
 756, 398.002, 0.830912, 0.00126158, 44.4949, 1.37654
 758, 399.002, 0.828385, 0.001265, 44.6388, 1.37548
 760, 400.002, 0.825852, 0.00126806, 44.7718, 1.37409
 762, 401.002, 0.823313, 0.0012708, 44.8951, 1.37238
 764, 402.002, 0.820769, 0.00127327, 45.0102, 1.37037
 766, 403.002, 0.81822, 0.0012755, 45.1186, 1.36809
 768, 404.002, 0.815667, 0.00127753, 45.2218, 1.36557
 770, 405.002, 0.81311, 0.00127941, 45.3212, 1.36282
 772, 406.002, 0.81055, 0.00128117, 45.4185, 1.35987
 774, 407.002, 0.807986, 0.00128287, 45.5153, 1.35675
 776, 408.002, 0.805418, 0.00128454, 45.6131, 1.35348
 778, 409.002, 0.802847, 0.00128622, 45.7134, 1.35008
 780, 410.002, 0.800273, 0.00128797, 45.8181, 1.34658
 782, 411.002, 0.797695, 0.00128983, 45.9285, 1.34301
 784, 412.002, 0.795114, 0.00129183, 46.0463, 1.33938
 786, 413.002, 0.792528, 0.00129403, 46.1731, 1.33573
 788, 414.002, 0.789937, 0.00129646, 46.3104, 1.33207
 790, 415.002, 0.787342, 0.00129917, 46.4598, 1.32844
 792, 416.002, 0.784741, 0.00130219, 46.6227, 1.32485
 794, 417.002, 0.782133, 0.00130557, 46.8006, 1.32132
 796, 418.002, 0.779518, 0.00130935, 46.9949, 1.31788
 798, 419.002, 0.776895, 0.00131356, 47.2069, 1.31454
 800, 420.002, 0.774263, 0.00131824, 47.4381, 1.31133
 802, 421.002, 0.771622, 0.00132343, 47.6896, 1.30827
 804, 422.002, 0.768969, 0.00132915, 47.9626, 1.30538
 806, 423.002, 0.766305, 0.00133544, 48.2584, 1.30266
 808, 424.002, 0.763627, 0.00134233, 48.5779, 1.30014
 810, 425.002, 0.760935, 0.00134985, 48.9222, 1.29784
 812, 426.002, 0.758227, 0.00135802, 49.2923, 1.29576
 814, 427.002, 0.755502, 0.00136686, 49.6888, 1.29392
 816, 428.002, 0.752759, 0.0013764, 50.1127, 1.29233
 818, 429.002, 0.749996, 0.00138666, 50.5645, 1.291
 820, 430.002, 0.747212, 0.00139764, 51.0449, 1.28995
 822, 431.002, 0.744405, 0.00140937, 51.5542, 1.28917
 824, 432.002, 0.741574, 0.00142186, 52.093, 1.28868
 826, 433.002, 0.738717, 0.00143511, 52.6613, 1.28849
 828, 434.002, 0.735833, 0.00144912, 53.2595, 1.28858
 830, 435.002, 0.73292, 0.00146391, 53.8874, 1.28898
 832, 436.002, 0.729976, 0.00147947, 54.5451, 1.28967
 834, 437.002, 0.727001, 0.00149579, 55.2322, 1.29066
 836, 438.002, 0.723993, 0.00151286, 55.9485, 1.29195
 838, 439.002, 0.720949, 0.00153068, 56.6934, 1.29353
 840, 440.002, 0.717869, 0.00154923, 57.4664, 1.2954
 842, 441.002, 0.714751, 0.00156849, 58.2666, 1.29755
 844, 442.002, 0.711595, 0.00158843, 59.0932, 1.29997
 846, 443.002, 0.708397, 0.00160904, 59.9451, 1.30265
 848, 444.002, 0.705158, 0.00163028, 60.8211, 1.30558
 850, 445.002, 0.701875, 0.00165211, 61.7198, 1.30874
 852, 446.002, 0.698549, 0.0016745, 62.6398, 1.31213
 854, 447.002, 0.695177, 0.00169741, 63.5794, 1.31573
 856, 448.002, 0.691759, 0.00172079, 64.5367, 1.31951
 858, 449.002, 0.688293, 0.00174458, 65.5098, 1.32345
 860, 450.002, 0.68478, 0.00176875, 66.4966, 1.32754
 862, 451.002, 0.681218, 0.00179322, 67.4948, 1.33176
 864, 452.002, 0.677607, 0.00181793, 68.5019, 1.33607
 866, 453.002, 0.673946, 0.00184283, 69.5155, 1.34045
 868, 454.002, 0.670235, 0.00186784, 70.5328, 1.34487
 870, 455.002, 0.666474, 0.00189288, 71.5509, 1.34931
 872, 456.002, 0.662663, 0.00191789, 72.567, 1.35374
 874, 457.002, 0.658802, 0.00194278, 73.578, 1.35811
 876, 458.002, 0.654892, 0.00196747, 74.5806, 1.36241
 878, 459.002, 0.650932, 0.00199189, 75.5716, 1.3666
 880, 460.002, 0.646924, 0.00201593, 76.5477, 1.37064
 882, 461.002, 0.642869, 0.00203952, 77.5055, 1.37449
 884, 462.002, 0.638766, 0.00206257, 78.4414, 1.37814
 886, 463.002, 0.634619, 0.00208498, 79.3519, 1.38153
 888, 464.002, 0.630427, 0.00210667, 80.2334, 1.38463
 890, 465.002, 0.626192, 0.00212753, 81.0825, 1.38742
 892, 466.002, 0.621917, 0.00214749, 81.8956, 1.38984
 894, 467.002, 0.617603, 0.00216645, 82.6691, 1.39187
 896, 468.002, 0.613252, 0.00218433, 83.3996, 1.39348
 898, 469.002, 0.608866, 0.00220102, 84.0837, 1.39462
 900, 470.002, 0.604448, 0.00221646, 84.718, 1.39527
 902, 471.002, 0.600001, 0.00223056, 85.2995, 1.3954
 904, 472.002, 0.595527, 0.00224323, 85.8249, 1.39497
 906, 473.002, 0.591029, 0.00225441, 86.2914, 1.39396
 908, 474.002, 0.58651, 0.00226402, 86.6962, 1.39235
 910, 475.002, 0.581974, 0.00227199, 87.0369, 1.39009
 912, 476.002, 0.577423, 0.00227828, 87.3109, 1.38719
 914, 477.002, 0.572862, 0.00228281, 87.5162, 1.38361
 916, 478.002, 0.568293, 0.00228555, 87.6509, 1.37933
 918, 479.002, 0.563721, 0.00228645, 87.7133, 1.37435
 920, 480.002, 0.559149, 0.00228548, 87.7022, 1.36865
 922, 481.002, 0.55458, 0.0022826, 87.6165, 1.36223
 924, 482.002, 0.55002, 0.00227781, 87.4553, 1.35507
 926, 483.002, 0.54547, 0.00227108, 87.2182, 1.34718
 928, 484.002, 0.540937, 0.00226241, 86.905, 1.33856
 930, 485.002, 0.536422, 0.0022518, 86.5158, 1.3292
 932, 486.002, 0.531931, 0.00223927, 86.0511, 1.31912
 934, 487.002, 0.527466, 0.00222484, 85.5117, 1.30833
 936, 488.002, 0.523033, 0.00220853, 84.8985, 1.29684
 938, 489.002, 0.518634, 0.00219037, 84.2131, 1.28466
 940, 490.002, 0.514273, 0.00217041, 83.4569, 1.27183
 942, 491.002, 0.509953, 0.0021487, 82.632, 1.25834
 944, 492.002, 0.505679, 0.0021253, 81.7405, 1.24425
 946, 493.002, 0.501454, 0.00210026, 80.7849, 1.22956
 948, 494.002, 0.49728, 0.00207365, 79.7679, 1.21431
 950, 495.002, 0.49316, 0.00204556, 78.6924, 1.19853
 952, 496.002, 0.489099, 0.00201606, 77.5615, 1.18225
 954, 497.002, 0.485097, 0.00198523, 76.3784, 1.16552
 956, 498.002, 0.481159, 0.00195316, 75.1467, 1.14836
 958, 499.002, 0.477286, 0.00191994, 73.8699, 1.13082
 960, 500.002, 0.47348, 0.00188567, 72.5516, 1.11293
 962, 501.002, 0.469744, 0.00185045, 71.1957, 1.09474
 964, 502.002, 0.466079, 0.00181436, 69.8059, 1.07628
 966, 503.002, 0.462487, 0.00177752, 68.3862, 1.05759
 968, 504.002, 0.45897, 0.00174001, 66.9404, 1.03872
 970, 505.002, 0.455528, 0.00170195, 65.4724, 1.01971
 972, 506.002, 0.452163, 0.00166342, 63.986, 1.00059
 974, 507.002, 0.448875, 0.00162452, 62.4851, 0.981398
 976, 508.002, 0.445665, 0.00158536, 60.9733, 0.962184
 978, 509.002, 0.442534, 0.00154602, 59.4543, 0.94298
 980, 510.002, 0.439482, 0.00150659, 57.9316, 0.923821
 982, 511.002, 0.436508, 0.00146716, 56.4086, 0.904743
 984, 512.002, 0.433613, 0.00142782, 54.8887, 0.885779
 986, 513.002, 0.430797, 0.00138864, 53.3748, 0.86696
 988, 514.002, 0.428059, 0.0013497, 51.8701, 0.848316
 990, 515.002, 0.425399, 0.00131108, 50.3773, 0.829875
 992, 516.002, 0.422815, 0.00127283, 48.8991, 0.811663
 994, 517.002, 0.420307, 0.00123503, 47.4379, 0.793705
 996, 518.002, 0.417875, 0.00119773, 45.996, 0.776023
 998, 519.002, 0.415516, 0.00116098, 44.5754, 0.758637
 1000, 520.002, 0.413231, 0.00112484, 43.1781, 0.741565
 1002, 521.002, 0.411017, 0.00108934, 41.8059, 0.724824
 1004, 522.002, 0.408873, 0.00105453, 40.4601, 0.708428
 1006, 523.002, 0.406799, 0.00102044, 39.1423, 0.69239
 1008, 524.002, 0.404791, 0.000987108, 37.8536, 0.676721
 1010, 525.002, 0.40285, 0.000954549, 36.5951, 0.661429
 1012, 526.002, 0.400973, 0.000922791, 35.3674, 0.646522
 1014, 527.002, 0.399159, 0.000891849, 34.1715, 0.632005
 1016, 528.002, 0.397405, 0.000861739, 33.0078, 0.617882
 1018, 529.002, 0.395711, 0.00083247, 31.8767, 0.604157
 1020, 530.002, 0.394075, 0.00080405, 30.7784, 0.590829
 1022, 531.002, 0.392495, 0.000776481, 29.7132, 0.577898
 1024, 532.002, 0.390969, 0.000749765, 28.6811, 0.565365
 1026, 533.002, 0.389496, 0.000723898, 27.6819, 0.553225
 1028, 534.002, 0.388073, 0.000698877, 26.7154, 0.541475
 1030, 535.002, 0.3867, 0.000674694, 25.7815, 0.530112
 1032, 536.002, 0.385374, 0.000651339, 24.8797, 0.519129
 1034, 537.002, 0.384094, 0.000628801, 24.0097, 0.508521
 1036, 538.002, 0.382858, 0.000607067, 23.1708, 0.49828
 1038, 539.002, 0.381665, 0.000586123, 22.3625, 0.4884
 1040, 540.002, 0.380514, 0.000565953, 21.5843, 0.478873
 1042, 541.002, 0.379401, 0.000546539, 20.8354, 0.469691
 1044, 542.002, 0.378327, 0.000527864, 20.1151, 0.460844
 1046, 543.002, 0.37729, 0.000509908, 19.4228, 0.452324
 1048, 544.002, 0.376287, 0.000492653, 18.7576, 0.444122
 1050, 545.002, 0.375319, 0.000476077, 18.1188, 0.436229
 1052, 546.002, 0.374383, 0.000460161, 17.5055, 0.428635
 1054, 547.002, 0.373478, 0.000444883, 16.917, 0.42133
 1056, 548.002, 0.372603, 0.000430223, 16.3525, 0.414305
 1058, 549.002, 0.371757, 0.00041616, 15.8111, 0.40755
 1060, 550.002, 0.370938, 0.000402672, 15.2921, 0.401056
 1062, 551.002, 0.370146, 0.00038974, 14.7945, 0.394814
 1064, 552.002, 0.369379, 0.000377341, 14.3177, 0.388814
 1066, 553.002, 0.368636, 0.000365456, 13.8607, 0.383046
 1068, 554.002, 0.367917, 0.000354064, 13.4229, 0.377503
 1070, 555.002, 0.36722, 0.000343146, 13.0034, 0.372175
 1072, 556.002, 0.366544, 0.000332683, 12.6016, 0.367053
 1074, 557.002, 0.365889, 0.000322655, 12.2166, 0.362129
 1076, 558.002, 0.365253, 0.000313043, 11.8477, 0.357395
 1078, 559.002, 0.364636, 0.000303831, 11.4943, 0.352842
 1080, 560.002, 0.364038, 0.000295001, 11.1557, 0.348464
 1082, 561.002, 0.363456, 0.000286535, 10.8312, 0.344252
 1084, 562.002, 0.362891, 0.000278417, 10.5202, 0.340199
 1086, 563.002, 0.362342, 0.000270632, 10.222, 0.336299
 1088, 564.002, 0.361809, 0.000263164, 9.93612, 0.332544
 1090, 565.002, 0.36129, 0.000255998, 9.66193, 0.328928
 1092, 566.002, 0.360785, 0.000249121, 9.3989, 0.325445
 1094, 567.002, 0.360293, 0.000242519, 9.14649, 0.322089
 1096, 568.002, 0.359814, 0.000236178, 8.9042, 0.318854
 1098, 569.002, 0.359348, 0.000230087, 8.67155, 0.315734
 1100, 570.002, 0.358894, 0.000224234, 8.44807, 0.312724
 1102, 571.002, 0.358451, 0.000218606, 8.23331, 0.30982
 1104, 572.002, 0.358019, 0.000213194, 8.02686, 0.307016
 1106, 573.002, 0.357598, 0.000207986, 7.82831, 0.304307
 1108, 574.002, 0.357187, 0.000202973, 7.63728, 0.30169
 1110, 575.002, 0.356786, 0.000198145, 7.45339, 0.29916
 1112, 576.002, 0.356395, 0.000193493, 7.2763, 0.296713
 1114, 577.002, 0.356012, 0.00018901, 7.10567, 0.294346
 1116, 578.002, 0.355639, 0.000184685, 6.9412, 0.292054
 1118, 579.002, 0.355274, 0.000180513, 6.78257, 0.289834
 1120, 580.002, 0.354917, 0.000176486, 6.62952, 0.287684
 1122, 581.002, 0.354568, 0.000172595, 6.48175, 0.285599
 1124, 582.002, 0.354226, 0.000168836, 6.33903, 0.283577
 1126, 583.002, 0.353892, 0.000165202, 6.2011, 0.281616
 1128, 584.002, 0.353565, 0.000161687, 6.06775, 0.279712
 1130, 585.002, 0.353245, 0.000158284, 5.93874, 0.277863
 1132, 586.002, 0.352932, 0.00015499, 5.81388, 0.276067
 1134, 587.002, 0.352625, 0.000151799, 5.69298, 0.274321
 1136, 588.002, 0.352325, 0.000148706, 5.57584, 0.272623
 1138, 589.002, 0.352031, 0.000145707, 5.4623, 0.270972
 1140, 590.002, 0.351742, 0.000142797, 5.3522, 0.269365
 1142, 591.002, 0.351459, 0.000139973, 5.24537, 0.2678
 1144, 592.002, 0.351182, 0.000137231, 5.14167, 0.266276
 1146, 593.002, 0.35091, 0.000134566, 5.04097, 0.264792
 1148, 594.002, 0.350644, 0.000131977, 4.94314, 0.263345
 1150, 595.002, 0.350382, 0.00012946, 4.84804, 0.261934
 1152, 596.002, 0.350126, 0.000127011, 4.75558, 0.260558
 1154, 597.002, 0.349874, 0.000124628, 4.66563, 0.259216
 1156, 598.002, 0.349627, 0.000122308, 4.5781, 0.257906
 1158, 599.002, 0.349385, 0.000120049, 4.49288, 0.256627
 1160, 600.002, 0.349147, 0.000117848, 4.40988, 0.255378
 1162, 601.002, 0.348914, 0.000115704, 4.32903, 0.254158
 1164, 602.002, 0.348684, 0.000113613, 4.25023, 0.252966
 1166, 603.002, 0.348459, 0.000111574, 4.1734, 0.251801
 1168, 604.002, 0.348238, 0.000109585, 4.09848, 0.250662
 1170, 605.002, 0.348021, 0.000107644, 4.0254, 0.249549
 1172, 606.002, 0.347808, 0.00010575, 3.95408, 0.248459
 1174, 607.002, 0.347598, 0.0001039, 3.88446, 0.247394
 1176, 608.002, 0.347392, 0.000102094, 3.8165, 0.246351
 1178, 609.002, 0.34719, 0.00010033, 3.75012, 0.245331
 1180, 610.002, 0.346991, 9.86056e-05, 3.68528, 0.244332
 1182, 611.002, 0.346795, 9.69207e-05, 3.62192, 0.243354
 1184, 612.002, 0.346603, 9.52736e-05, 3.56, 0.242396
 1186, 613.002, 0.346414, 9.36631e-05, 3.49946, 0.241458
 1188, 614.002, 0.346228, 9.20882e-05, 3.44028, 0.240539
 1190, 615.002, 0.346046, 9.05476e-05, 3.3824, 0.239639
 1192, 616.002, 0.345866, 8.90404e-05, 3.32578, 0.238756
 1194, 617.002, 0.345689, 8.75655e-05, 3.27039, 0.237892
 1196, 618.002, 0.345516, 8.6122e-05, 3.21619, 0.237044
 1198, 619.002, 0.345345, 8.4709e-05, 3.16314, 0.236213
 1200, 620.002, 0.345177, 8.33256e-05, 3.11121, 0.235398
 1202, 621.002, 0.345012, 8.19709e-05, 3.06038, 0.234599
 1204, 622.002, 0.344849, 8.06442e-05, 3.0106, 0.233816
 1206, 623.002, 0.344689, 7.93448e-05, 2.96185, 0.233047
 1208, 624.002, 0.344532, 7.80717e-05, 2.91409, 0.232294
 1210, 625.002, 0.344377, 7.68244e-05, 2.86732, 0.231554
 1212, 626.002, 0.344224, 7.56021e-05, 2.82148, 0.230828
 1214, 627.002, 0.344074, 7.44042e-05, 2.77657, 0.230116
 1216, 628.002, 0.343927, 7.32301e-05, 2.73256, 0.229417
 1218, 629.002, 0.343781, 7.20791e-05, 2.68942, 0.228731
 1220, 630.002, 0.343638, 7.09506e-05, 2.64713, 0.228058
 1222, 631.002, 0.343498, 6.98442e-05, 2.60567, 0.227396
 1224, 632.002, 0.343359, 6.87591e-05, 2.56502, 0.226747
 1226, 633.002, 0.343223, 6.76949e-05, 2.52515, 0.22611
 1228, 634.002, 0.343088, 6.66511e-05, 2.48606, 0.225484
 1230, 635.002, 0.342956, 6.56271e-05, 2.44771, 0.22487
 1232, 636.002, 0.342826, 6.46226e-05, 2.4101, 0.224266
 1234, 637.002, 0.342697, 6.36369e-05, 2.37319, 0.223673
 1236, 638.002, 0.342571, 6.26698e-05, 2.33699, 0.223091
 1238, 639.002, 0.342447, 6.17206e-05, 2.30146, 0.222519
 1240, 640.002, 0.342324, 6.07891e-05, 2.2666, 0.221957
 1242, 641.002, 0.342204, 5.98748e-05, 2.23238, 0.221404
 1244, 642.002, 0.342085, 5.89773e-05, 2.1988, 0.220862
 1246, 643.002, 0.341968, 5.80962e-05, 2.16583, 0.220328
 1248, 644.002, 0.341852, 5.72311e-05, 2.13347, 0.219804
 1250, 645.002, 0.341739, 5.63818e-05, 2.1017, 0.219289
 1252, 646.002, 0.341627, 5.55477e-05, 2.0705, 0.218783
 1254, 647.002, 0.341517, 5.47286e-05, 2.03987, 0.218285
 1256, 648.002, 0.341408, 5.39242e-05, 2.00979, 0.217796
 1258, 649.002, 0.341301, 5.31341e-05, 1.98025, 0.217315
 1260, 650.002, 0.341195, 5.2358e-05, 1.95123, 0.216842
 1262, 651.002, 0.341092, 5.15956e-05, 1.92273, 0.216377
 1264, 652.002, 0.340989, 5.08467e-05, 1.89473, 0.21592
 1266, 653.002, 0.340888, 5.01108e-05, 1.86723, 0.215471
 1268, 654.002, 0.340789, 4.93878e-05, 1.84021, 0.215029
 1270, 655.002, 0.340691, 4.86773e-05, 1.81366, 0.214594
 1272, 656.002, 0.340594, 4.79792e-05, 1.78757, 0.214166
 1274, 657.002, 0.340499, 4.72931e-05, 1.76193, 0.213745
 1276, 658.002, 0.340405, 4.66187e-05, 1.73674, 0.213332
 1278, 659.002, 0.340312, 4.59559e-05, 1.71198, 0.212925
 1280, 660.002, 0.340221, 4.53044e-05, 1.68764, 0.212525
 1282, 661.002, 0.340131, 4.4664e-05, 1.66372, 0.212131
 1284, 662.002, 0.340042, 4.40344e-05, 1.64021, 0.211743
 1286, 663.002, 0.339955, 4.34154e-05, 1.61709, 0.211362
 1288, 664.002, 0.339869, 4.28069e-05, 1.59437, 0.210987
 1290, 665.002, 0.339784, 4.22085e-05, 1.57202, 0.210618
 1292, 666.002, 0.3397, 4.16201e-05, 1.55006, 0.210254
 1294, 667.002, 0.339617, 4.10415e-05, 1.52845, 0.209897
 1296, 668.002, 0.339536, 4.04724e-05, 1.50721, 0.209545
 1298, 669.002, 0.339455, 3.99128e-05, 1.48632, 0.209199
 1300, 670.002, 0.339376, 3.93624e-05, 1.46577, 0.208858
 1302, 671.002, 0.339298, 3.8821e-05, 1.44557, 0.208523
 1304, 672.002, 0.339221, 3.82885e-05, 1.42569, 0.208192
 1306, 673.002, 0.339145, 3.77646e-05, 1.40614, 0.207867
 1308, 674.002, 0.33907, 3.72493e-05, 1.38691, 0.207547
 1310, 675.002, 0.338996, 3.67423e-05, 1.36799, 0.207232
 1312, 676.002, 0.338923, 3.62435e-05, 1.34938, 0.206922
 1314, 677.002, 0.338851, 3.57528e-05, 1.33107, 0.206617
 1316, 678.002, 0.33878, 3.52699e-05, 1.31306, 0.206316
 1318, 679.002, 0.33871, 3.47947e-05, 1.29533, 0.20602
 1320, 680.002, 0.33864, 3.43271e-05, 1.27789, 0.205729
 1322, 681.002, 0.338572, 3.3867e-05, 1.26072, 0.205441
 1324, 682.002, 0.338505, 3.34141e-05, 1.24383, 0.205159
 1326, 683.002, 0.338439, 3.29684e-05, 1.22721, 0.20488
 1328, 684.002, 0.338373, 3.25297e-05, 1.21085, 0.204606
 1330, 685.002, 0.338308, 3.2098e-05, 1.19475, 0.204336
 1332, 686.002, 0.338245, 3.1673e-05, 1.1789, 0.20407
 1334, 687.002, 0.338182, 3.12546e-05, 1.1633, 0.203808
 1336, 688.002, 0.33812, 3.08427e-05, 1.14794, 0.20355
 1338, 689.002, 0.338058, 3.04373e-05, 1.13282, 0.203296
 1340, 690.002, 0.337998, 3.00381e-05, 1.11794, 0.203045
 1342, 691.002, 0.337938, 2.96451e-05, 1.10329, 0.202798
 1344, 692.002, 0.337879, 2.92582e-05, 1.08886, 0.202555
 1346, 693.002, 0.337821, 2.88772e-05, 1.07466, 0.202316
 1348, 694.002, 0.337764, 2.8502e-05, 1.06067, 0.20208
 1350, 695.002, 0.337707, 2.81326e-05, 1.0469, 0.201848
 1352, 696.002, 0.337651, 2.77688e-05, 1.03334, 0.201618
 1354, 697.002, 0.337596, 2.74106e-05, 1.01999, 0.201393
 1356, 698.002, 0.337542, 2.70577e-05, 1.00684, 0.20117
 1358, 699.002, 0.337488, 2.67103e-05, 0.99389, 0.200951
 1360, 700.002, 0.337435, 2.6368e-05, 0.981135, 0.200735
 1362, 701.002, 0.337382, 2.60309e-05, 0.968573, 0.200522
 1364, 702.002, 0.337331, 2.56989e-05, 0.9562, 0.200312
 1366, 703.002, 0.33728, 2.53718e-05, 0.944013, 0.200106
 1368, 704.002, 0.337229, 2.50496e-05, 0.932008, 0.199902
 1370, 705.002, 0.337179, 2.47323e-05, 0.920182, 0.199701
 1372, 706.002, 0.33713, 2.44196e-05, 0.908532, 0.199503
 1374, 707.002, 0.337082, 2.41116e-05, 0.897056, 0.199308
 1376, 708.002, 0.337034, 2.38081e-05, 0.88575, 0.199115
 1378, 709.002, 0.336987, 2.35091e-05, 0.87461, 0.198926
 1380, 710.002, 0.33694, 2.32145e-05, 0.863635, 0.198739
 1382, 711.002, 0.336894, 2.29242e-05, 0.852822, 0.198554
 1384, 712.002, 0.336848, 2.26382e-05, 0.842167, 0.198372
 1386, 713.002, 0.336803, 2.23563e-05, 0.831668, 0.198193
 1388, 714.002, 0.336759, 2.20786e-05, 0.821323, 0.198017
 1390, 715.002, 0.336715, 2.18049e-05, 0.811128, 0.197843
 1392, 716.002, 0.336671, 2.15351e-05, 0.801082, 0.197671
 1394, 717.002, 0.336629, 2.12693e-05, 0.791181, 0.197501
 1396, 718.002, 0.336586, 2.10073e-05, 0.781423, 0.197334
 1398, 719.002, 0.336545, 2.07491e-05, 0.771806, 0.19717
 1400, 720.002, 0.336503, 2.04946e-05, 0.762328, 0.197007
 1402, 721.002, 0.336463, 2.02437e-05, 0.752986, 0.196847
 1404, 722.002, 0.336422, 1.99964e-05, 0.743778, 0.196689
 1406, 723.002, 0.336383, 1.97527e-05, 0.734701, 0.196533
 1408, 724.002, 0.336343, 1.95124e-05, 0.725754, 0.19638
 1410, 725.002, 0.336305, 1.92756e-05, 0.716934, 0.196228
 1412, 726.002, 0.336266, 1.90421e-05, 0.70824, 0.196079
 1414, 727.002, 0.336228, 1.88119e-05, 0.699668, 0.195932
 1416, 728.002, 0.336191, 1.85849e-05, 0.691218, 0.195786
 1418, 729.002, 0.336154, 1.83612e-05, 0.682888, 0.195643
 1420, 730.002, 0.336118, 1.81405e-05, 0.674674, 0.195501
 1422, 731.002, 0.336082, 1.7923e-05, 0.666576, 0.195362
 1424, 732.002, 0.336046, 1.77086e-05, 0.658591, 0.195224
 1426, 733.002, 0.336011, 1.74971e-05, 0.650718, 0.195088
 1428, 734.002, 0.335976, 1.72885e-05, 0.642955, 0.194954
 1430, 735.002, 0.335942, 1.70829e-05, 0.6353, 0.194822
 1432, 736.002, 0.335908, 1.68801e-05, 0.627751, 0.194692
 1434, 737.002, 0.335874, 1.66801e-05, 0.620307, 0.194563
 1436, 738.002, 0.335841, 1.64829e-05, 0.612966, 0.194436
 1438, 739.002, 0.335808, 1.62884e-05, 0.605726, 0.194311
 1440, 740.002, 0.335776, 1.60966e-05, 0.598586, 0.194187
 1442, 741.002, 0.335744, 1.59074e-05, 0.591544, 0.194065
 1444, 742.002, 0.335712, 1.57208e-05, 0.584599, 0.193945
 1446, 743.002, 0.335681, 1.55368e-05, 0.577749, 0.193826
 1448, 744.002, 0.33565, 1.53552e-05, 0.570992, 0.193709
 1450, 745.002, 0.335619, 1.51762e-05, 0.564328, 0.193594
 1452, 746.002, 0.335589, 1.49995e-05, 0.557754, 0.193479
 1454, 747.002, 0.335559, 1.48253e-05, 0.551269, 0.193367
 1456, 748.002, 0.33553, 1.46534e-05, 0.544873, 0.193256
 1458, 749.002, 0.335501, 1.44838e-05, 0.538562, 0.193146
 1460, 750.002, 0.335472, 1.43166e-05, 0.532337, 0.193038
 1462, 751.002, 0.335444, 1.41515e-05, 0.526196, 0.192931
 1464, 752.002, 0.335415, 1.39887e-05, 0.520137, 0.192825
 1466, 753.002, 0.335388, 1.38281e-05, 0.51416, 0.192721
 1468, 754.002, 0.33536, 1.36696e-05, 0.508262, 0.192619
 1470, 755.002, 0.335333, 1.35132e-05, 0.502444, 0.192517
 1472, 756.002, 0.335306, 1.33589e-05, 0.496703, 0.192417
 1474, 757.002, 0.335279, 1.32067e-05, 0.491038, 0.192318
 1476, 758.002, 0.335253, 1.30565e-05, 0.485448, 0.19222
 1478, 759.002, 0.335227, 1.29082e-05, 0.479933, 0.192124
 1480, 760.002, 0.335202, 1.2762e-05, 0.474491, 0.192029
 1482, 761.002, 0.335176, 1.26176e-05, 0.46912, 0.191935
 1484, 762.002, 0.335151, 1.24752e-05, 0.46382, 0.191843
 1486, 763.002, 0.335126, 1.23346e-05, 0.45859, 0.191751
 1488, 764.002, 0.335102, 1.21959e-05, 0.453429, 0.191661
 1490, 765.002, 0.335078, 1.2059e-05, 0.448335, 0.191572
 1492, 766.002, 0.335054, 1.19238e-05, 0.443307, 0.191483
 1494, 767.002, 0.33503, 1.17905e-05, 0.438346, 0.191396
 1496, 768.002, 0.335006, 1.16588e-05, 0.433449, 0.191311
 1498, 769.002, 0.334983, 1.15289e-05, 0.428615, 0.191226
 1500, 770.002, 0.33496, 1.14007e-05, 0.423844, 0.191142
 1502, 771.002, 0.334938, 1.12741e-05, 0.419136, 0.191059
 1504, 772.002, 0.334915, 1.11491e-05, 0.414488, 0.190978
 1506, 773.002, 0.334893, 1.10258e-05, 0.409899, 0.190897
 1508, 774.002, 0.334871, 1.09041e-05, 0.40537, 0.190817
 1510, 775.002, 0.334849, 1.07839e-05, 0.4009, 0.190739
 1512, 776.002, 0.334828, 1.06652e-05, 0.396486, 0.190661
 1514, 777.002, 0.334807, 1.05481e-05, 0.392129, 0.190584
 1516, 778.002, 0.334786, 1.04325e-05, 0.387828, 0.190509
 1518, 779.002, 0.334765, 1.03183e-05, 0.383582, 0.190434
 1520, 780.002, 0.334744, 1.02056e-05, 0.37939, 0.19036
 1522, 781.002, 0.334724, 1.00943e-05, 0.375251, 0.190287
 1524, 782.002, 0.334704, 9.98445e-06, 0.371164, 0.190215
 1526, 783.002, 0.334684, 9.87598e-06, 0.367129, 0.190144
 1528, 784.002, 0.334665, 9.76888e-06, 0.363146, 0.190073
 1530, 785.002, 0.334645, 9.66312e-06, 0.359212, 0.190004
 1532, 786.002, 0.334626, 9.5587e-06, 0.355329, 0.189935
 1534, 787.002, 0.334607, 9.45559e-06, 0.351494, 0.189868
 1536, 788.002, 0.334588, 9.35377e-06, 0.347707, 0.1898
 1538, 789.002, 0.33457, 9.25323e-06, 0.343967, 0.189734
 1540, 790.002, 0.334551, 9.15394e-06, 0.340275, 0.189669
 1542, 791.002, 0.334533, 9.05589e-06, 0.336628, 0.189604
 1544, 792.002, 0.334515, 8.95906e-06, 0.333027, 0.18954
 1546, 793.002, 0.334497, 8.86344e-06, 0.32947, 0.189477
 1548, 794.002, 0.334479, 8.769e-06, 0.325958, 0.189415
 1550, 795.002, 0.334462, 8.67573e-06, 0.32249, 0.189354
 1552, 796.002, 0.334445, 8.58362e-06, 0.319064, 0.189293
 1554, 797.002, 0.334428, 8.49264e-06, 0.315681, 0.189233
 1556, 798.002, 0.334411, 8.40278e-06, 0.312339, 0.189173
 1558, 799.002, 0.334394, 8.31403e-06, 0.309038, 0.189115
 1560, 800.002, 0.334377, 8.22636e-06, 0.305778, 0.189057