File: examples/Birch_TGA_Example/Work/Cone_2abpo9o1/birch_tga_1step_5_tga.csv
s,C,g/g,1/s,W/g,W/g
Time,Temp,Mass,MLR,MCC,DSC
 12, 21.0003, 0.999993, 6.11641e-07, 3.73132e-28, 0.121505
 24, 22.0003, 0.999985, 7.02365e-07, 5.21419e-28, 0.121708
 36, 23.0003, 0.999976, 8.05766e-07, 7.26994e-28, 0.121938
 48, 24.0003, 0.999966, 9.23498e-07, 1.01135e-27, 0.122201
 60, 25.0003, 0.999954, 1.05742e-06, 1.40382e-27, 0.1225
 72, 26.0003, 0.99994, 1.2096e-06, 1.94434e-27, 0.12284
 84, 27.0003, 0.999925, 1.38236e-06, 2.68712e-27, 0.123225
 96, 28.0003, 0.999907, 1.57829e-06, 3.70569e-27, 0.123662
 108, 29.0003, 0.999887, 1.80028e-06, 5.0995e-27, 0.124158
 120, 30.0003, 0.999864, 2.05153e-06, 7.00279e-27, 0.124718
 132, 31.0003, 0.999838, 2.33562e-06, 9.59641e-27, 0.125352
 144, 32.0003, 0.999808, 2.65649e-06, 1.31235e-26, 0.126067
 156, 33.0003, 0.999774, 3.01853e-06, 1.79103e-26, 0.126875
 168, 34.0003, 0.999735, 3.42658e-06, 2.43936e-26, 0.127785
 180, 35.0003, 0.999691, 3.88597e-06, 3.31573e-26, 0.128809
 192, 36.0003, 0.999641, 4.40258e-06, 4.498e-26, 0.12996
 204, 37.0003, 0.999585, 4.98285e-06, 6.08984e-26, 0.131254
 216, 38.0003, 0.999522, 5.63384e-06, 8.22898e-26, 0.132705
 228, 39.0003, 0.99945, 6.36325e-06, 1.10981e-25, 0.13433
 240, 40.0003, 0.999369, 7.17944e-06, 1.4939e-25, 0.136149
 252, 41.0003, 0.999277, 8.09149e-06, 2.00712e-25, 0.13818
 264, 42.0003, 0.999174, 9.10918e-06, 2.6916e-25, 0.140447
 276, 43.0003, 0.999058, 1.0243e-05, 3.60281e-25, 0.142972
 288, 44.0003, 0.998928, 1.15042e-05, 4.81365e-25, 0.145781
 300, 45.0003, 0.998781, 1.29047e-05, 6.41972e-25, 0.148898
 312, 46.0003, 0.998617, 1.4457e-05, 8.54622e-25, 0.152354
 324, 47.0003, 0.998434, 1.61741e-05, 1.13568e-24, 0.156175
 336, 48.0003, 0.998228, 1.80696e-05, 1.5065e-24, 0.160392
 348, 49.0003, 0.997999, 2.01572e-05, 1.99489e-24, 0.165036
 360, 50.0003, 0.997744, 2.24507e-05, 2.63703e-24, 0.170136
 372, 51.0003, 0.997459, 2.49637e-05, 3.47987e-24, 0.175724
 384, 52.0003, 0.997144, 2.77091e-05, 4.58428e-24, 0.181825
 396, 53.0003, 0.996793, 3.06987e-05, 6.02898e-24, 0.188468
 408, 54.0003, 0.996406, 3.39427e-05, 7.91571e-24, 0.195673
 420, 55.0003, 0.995978, 3.74491e-05, 1.03756e-23, 0.203458
 432, 56.0003, 0.995506, 4.12227e-05, 1.35777e-23, 0.211832
 444, 57.0003, 0.994987, 4.52644e-05, 1.7739e-23, 0.220796
 456, 58.0003, 0.994418, 4.95698e-05, 2.31383e-23, 0.230339
 468, 59.0003, 0.993797, 5.41286e-05, 3.01327e-23, 0.240437
 480, 60.0003, 0.993118, 5.89226e-05, 3.91793e-23, 0.251048
 492, 61.0003, 0.992381, 6.39249e-05, 5.08619e-23, 0.262109
 504, 62.0003, 0.991583, 6.90982e-05, 6.59253e-23, 0.273537
 516, 63.0003, 0.990723, 7.43934e-05, 8.53182e-23, 0.285217
 528, 64.0003, 0.989798, 7.97484e-05, 1.10247e-22, 0.297011
 540, 65.0002, 0.988809, 8.50867e-05, 1.42244e-22, 0.308745
 552, 66.0002, 0.987756, 9.03173e-05, 1.83251e-22, 0.320212
 564, 67.0002, 0.986642, 9.53341e-05, 2.3573e-22, 0.331174
 576, 68.0002, 0.985469, 0.000100017, 3.02789e-22, 0.341359
 588, 69.0002, 0.984243, 0.000104232, 3.88357e-22, 0.350468
 600, 70.0002, 0.98297, 0.000107836, 4.97384e-22, 0.358179
 612, 71.0002, 0.981658, 0.000110681, 6.36104e-22, 0.364157
 624, 72.0002, 0.980317, 0.000112618, 8.12354e-22, 0.36807
 636, 73.0002, 0.97896, 0.000113505, 1.03598e-21, 0.369604
 648, 74.0002, 0.977598, 0.000113219, 1.3193e-21, 0.368478
 660, 75.0002, 0.976247, 0.000111658, 1.67779e-21, 0.364475
 672, 76.0002, 0.974924, 0.000108763, 2.13075e-21, 0.35746
 684, 77.0002, 0.973643, 0.000104517, 2.7023e-21, 0.347403
 696, 78.0002, 0.97242, 9.89605e-05, 3.42254e-21, 0.334403
 708, 79.0002, 0.971272, 9.21961e-05, 4.32893e-21, 0.318694
 720, 80.0003, 0.970212, 8.43899e-05, 5.46807e-21, 0.300659
 732, 81.0003, 0.96925, 7.57684e-05, 6.89788e-21, 0.280815
 744, 82.0003, 0.968396, 6.66095e-05, 8.69018e-21, 0.259791
 756, 83.0003, 0.967653, 5.72266e-05, 1.0934e-20, 0.2383
 768, 84.0003, 0.967022, 4.7947e-05, 1.37395e-20, 0.217083
 780, 85.0003, 0.9665, 3.90874e-05, 1.72428e-20, 0.196853
 792, 86.0003, 0.966081, 3.09276e-05, 2.1612e-20, 0.178244
 804, 87.0003, 0.965755, 2.36877e-05, 2.70544e-20, 0.161749
 816, 88.0003, 0.965509, 1.75105e-05, 3.38252e-20, 0.147686
 828, 89.0003, 0.96533, 1.24535e-05, 4.22384e-20, 0.136181
 840, 90.0003, 0.965205, 8.49205e-06, 5.26797e-20, 0.127175
 852, 91.0004, 0.965122, 5.53148e-06, 6.56223e-20, 0.120447
 864, 92.0004, 0.965069, 3.42787e-06, 8.16465e-20, 0.11567
 876, 93.0004, 0.965037, 2.01216e-06, 1.01462e-19, 0.112455
 888, 94.0004, 0.965019, 1.11352e-06, 1.25938e-19, 0.110416
 900, 95.0004, 0.965009, 5.77975e-07, 1.56135e-19, 0.109201
 912, 96.0004, 0.965004, 2.79825e-07, 1.93348e-19, 0.108525
 924, 97.0004, 0.965002, 1.25613e-07, 2.39153e-19, 0.108175
 936, 98.0004, 0.965001, 5.19441e-08, 2.9547e-19, 0.108008
 948, 99.0004, 0.965, 1.965e-08, 3.64635e-19, 0.107935
 960, 100, 0.965, 6.74893e-09, 4.49483e-19, 0.107906
 972, 101, 0.965, 2.08746e-09, 5.53456e-19, 0.107895
 984, 102, 0.965, 5.76366e-10, 6.80724e-19, 0.107892
 996, 103, 0.965, 1.40723e-10, 8.36337e-19, 0.107891
 1008, 104, 0.965, 3.00736e-11, 1.0264e-18, 0.10789
 1020, 105, 0.965, 5.56399e-12, 1.25829e-18, 0.10789
 1032, 106, 0.965, 8.80702e-13, 1.54092e-18, 0.10789
 1044, 107, 0.965, 1.17755e-13, 1.88502e-18, 0.10789
 1056, 108, 0.965, 1.31184e-14, 2.30353e-18, 0.10789
 1068, 109, 0.965, 1.19987e-15, 2.81199e-18, 0.10789
 1080, 110, 0.965, 8.86854e-17, 3.42912e-18, 0.10789
 1092, 111, 0.965, 5.20766e-18, 4.17736e-18, 0.10789
 1104, 112, 0.965, 2.38651e-19, 5.08367e-18, 0.10789
 1116, 113, 0.965, 8.51067e-21, 6.18031e-18, 0.10789
 1128, 114, 0.965, 4.06875e-22, 7.50594e-18, 0.10789
 1140, 115, 0.965, 2.3188e-22, 9.10679e-18, 0.10789
 1152, 116, 0.965, 2.7601e-22, 1.10381e-17, 0.10789
 1164, 117, 0.965, 3.34145e-22, 1.33658e-17, 0.10789
 1176, 118, 0.965, 4.04212e-22, 1.61685e-17, 0.10789
 1188, 119, 0.965, 4.88499e-22, 1.95399e-17, 0.10789
 1200, 120, 0.965, 5.89792e-22, 2.35917e-17, 0.10789
 1212, 121, 0.965, 7.11408e-22, 2.84563e-17, 0.10789
 1224, 122, 0.965, 8.57288e-22, 3.42915e-17, 0.10789
 1236, 123, 0.965, 1.03211e-21, 4.12844e-17, 0.10789
 1248, 124, 0.965, 1.24142e-21, 4.96568e-17, 0.10789
 1260, 125, 0.965, 1.4918e-21, 5.96718e-17, 0.10789
 1272, 126, 0.965, 1.79102e-21, 7.16407e-17, 0.10789
 1284, 127, 0.965, 2.14829e-21, 8.59318e-17, 0.10789
 1296, 128, 0.965, 2.5745e-21, 1.0298e-16, 0.10789
 1308, 129, 0.965, 3.0825e-21, 1.233e-16, 0.10789
 1320, 130, 0.965, 3.68743e-21, 1.47497e-16, 0.10789
 1332, 131, 0.965, 4.40717e-21, 1.76287e-16, 0.10789
 1344, 132, 0.965, 5.26275e-21, 2.1051e-16, 0.10789
 1356, 133, 0.965, 6.27895e-21, 2.51158e-16, 0.10789
 1368, 134, 0.965, 7.48488e-21, 2.99395e-16, 0.10789
 1380, 135, 0.965, 8.91474e-21, 3.56589e-16, 0.10789
 1392, 136, 0.965, 1.06087e-20, 4.24347e-16, 0.10789
 1404, 137, 0.965, 1.26138e-20, 5.04551e-16, 0.10789
 1416, 138, 0.965, 1.49852e-20, 5.99409e-16, 0.10789
 1428, 139, 0.965, 1.77877e-20, 7.11507e-16, 0.10789
 1440, 140, 0.965, 2.10967e-20, 8.43867e-16, 0.10789
 1452, 141, 0.965, 2.50006e-20, 1.00003e-15, 0.10789
 1464, 142, 0.965, 2.96028e-20, 1.18411e-15, 0.10789
 1476, 143, 0.965, 3.50237e-20, 1.40095e-15, 0.10789
 1488, 144, 0.965, 4.14039e-20, 1.65616e-15, 0.10789
 1500, 145, 0.965, 4.89072e-20, 1.95629e-15, 0.10789
 1512, 146, 0.965, 5.77243e-20, 2.30897e-15, 0.10789
 1524, 147, 0.965, 6.80773e-20, 2.72309e-15, 0.10789
 1536, 148, 0.965, 8.02243e-20, 3.20897e-15, 0.10789
 1548, 149, 0.965, 9.44651e-20, 3.7786e-15, 0.10789
 1560, 150, 0.965, 1.11148e-19, 4.44592e-15, 0.10789
 1572, 151, 0.965, 1.30677e-19, 5.22708e-15, 0.10789
 1584, 152, 0.965, 1.5352e-19, 6.1408e-15, 0.10789
 1596, 153, 0.965, 1.8022e-19, 7.20881e-15, 0.10789
 1608, 154, 0.965, 2.11405e-19, 8.4562e-15, 0.10789
 1620, 155, 0.965, 2.47801e-19, 9.91205e-15, 0.10789
 1632, 156, 0.965, 2.90249e-19, 1.16099e-14, 0.10789
 1644, 157, 0.965, 3.39717e-19, 1.35887e-14, 0.10789
 1656, 158, 0.965, 3.97327e-19, 1.58931e-14, 0.10789
 1668, 159, 0.965, 4.6437e-19, 1.85748e-14, 0.10789
 1680, 160, 0.965, 5.42334e-19, 2.16933e-14, 0.10789
 1692, 161, 0.965, 6.32935e-19, 2.53174e-14, 0.10789
 1704, 162, 0.965, 7.38147e-19, 2.95259e-14, 0.10789
 1716, 163, 0.965, 8.60242e-19, 3.44097e-14, 0.10789
 1728, 164, 0.965, 1.00183e-18, 4.00732e-14, 0.10789
 1740, 165, 0.965, 1.16591e-18, 4.66365e-14, 0.10789
 1752, 166, 0.965, 1.35593e-18, 5.42372e-14, 0.10789
 1764, 167, 0.965, 1.57584e-18, 6.30335e-14, 0.10789
 1776, 168, 0.965, 1.83016e-18, 7.32064e-14, 0.10789
 1788, 169, 0.965, 2.12409e-18, 8.49636e-14, 0.10789
 1800, 170, 0.965, 2.46357e-18, 9.85427e-14, 0.10789
 1812, 171, 0.965, 2.8554e-18, 1.14216e-13, 0.10789
 1824, 172, 0.965, 3.30735e-18, 1.32294e-13, 0.10789
 1836, 173, 0.965, 3.82832e-18, 1.53133e-13, 0.10789
 1848, 174, 0.965, 4.42845e-18, 1.77138e-13, 0.10789
 1860, 175, 0.965, 5.11933e-18, 2.04773e-13, 0.10789
 1872, 176, 0.965, 5.91418e-18, 2.36567e-13, 0.10789
 1884, 177, 0.965, 6.82806e-18, 2.73122e-13, 0.10789
 1896, 178, 0.965, 7.87813e-18, 3.15125e-13, 0.10789
 1908, 179, 0.965, 9.08394e-18, 3.63358e-13, 0.10789
 1920, 180, 0.965, 1.04677e-17, 4.18709e-13, 0.10789
 1932, 181, 0.965, 1.20548e-17, 4.82191e-13, 0.10789
 1944, 182, 0.965, 1.38739e-17, 5.54954e-13, 0.10789
 1956, 183, 0.965, 1.59576e-17, 6.38303e-13, 0.10789
 1968, 184, 0.965, 1.8343e-17, 7.33721e-13, 0.10789
 1980, 185, 0.965, 2.10723e-17, 8.42891e-13, 0.10789
 1992, 186, 0.965, 2.4193e-17, 9.67718e-13, 0.10789
 2004, 187, 0.965, 2.77591e-17, 1.11036e-12, 0.10789
 2016, 188, 0.965, 3.1832e-17, 1.27328e-12, 0.10789
 2028, 189, 0.965, 3.64808e-17, 1.45923e-12, 0.10789
 2040, 190, 0.965, 4.17839e-17, 1.67136e-12, 0.10789
 2052, 191, 0.965, 4.783e-17, 1.9132e-12, 0.10789
 2064, 192, 0.965, 5.47191e-17, 2.18876e-12, 0.10789
 2076, 193, 0.965, 6.25643e-17, 2.50257e-12, 0.10789
 2088, 194, 0.965, 7.14933e-17, 2.85973e-12, 0.10789
 2100, 195, 0.965, 8.16501e-17, 3.266e-12, 0.10789
 2112, 196, 0.965, 9.3197e-17, 3.72788e-12, 0.10789
 2124, 197, 0.965, 1.06317e-16, 4.25268e-12, 0.10789
 2136, 198, 0.965, 1.21216e-16, 4.84865e-12, 0.10789
 2148, 199, 0.965, 1.38127e-16, 5.52507e-12, 0.10789
 2160, 200, 0.965, 1.5731e-16, 6.29238e-12, 0.10789
 2172, 201, 0.965, 1.79058e-16, 7.16232e-12, 0.10789
 2184, 202, 0.965, 2.03702e-16, 8.1481e-12, 0.10789
 2196, 203, 0.965, 2.31613e-16, 9.26452e-12, 0.10789
 2208, 204, 0.965, 2.63206e-16, 1.05283e-11, 0.10789
 2220, 205, 0.965, 2.98949e-16, 1.1958e-11, 0.10789
 2232, 206, 0.965, 3.39365e-16, 1.35746e-11, 0.10789
 2244, 207, 0.965, 3.85042e-16, 1.54017e-11, 0.10789
 2256, 208, 0.965, 4.36637e-16, 1.74655e-11, 0.10789
 2268, 209, 0.965, 4.94888e-16, 1.97955e-11, 0.10789
 2280, 210, 0.965, 5.60619e-16, 2.24248e-11, 0.10789
 2292, 211, 0.965, 6.34754e-16, 2.53902e-11, 0.10789
 2304, 212, 0.965, 7.18324e-16, 2.8733e-11, 0.10789
 2316, 213, 0.965, 8.12483e-16, 3.24993e-11, 0.10789
 2328, 214, 0.965, 9.1852e-16, 3.67408e-11, 0.10789
 2340, 215, 0.965, 1.03787e-15, 4.1515e-11, 0.10789
 2352, 216, 0.965, 1.17215e-15, 4.68861e-11, 0.10789
 2364, 217, 0.965, 1.32315e-15, 5.29258e-11, 0.10789
 2376, 218, 0.965, 1.49285e-15, 5.97141e-11, 0.10789
 2388, 219, 0.965, 1.6835e-15, 6.734e-11, 0.10789
 2400, 220, 0.965, 1.89757e-15, 7.59028e-11, 0.10789
 2412, 221, 0.965, 2.13782e-15, 8.55129e-11, 0.10789
 2424, 222, 0.965, 2.40734e-15, 9.62935e-11, 0.10789
 2436, 223, 0.965, 2.70953e-15, 1.08381e-10, 0.10789
 2448, 224, 0.965, 3.04821e-15, 1.21928e-10, 0.10789
 2460, 225, 0.965, 3.4276e-15, 1.37104e-10, 0.10789
 2472, 226, 0.965, 3.8524e-15, 1.54096e-10, 0.10789
 2484, 227, 0.965, 4.32782e-15, 1.73113e-10, 0.10789
 2496, 228, 0.965, 4.85966e-15, 1.94386e-10, 0.10789
 2508, 229, 0.965, 5.45434e-15, 2.18173e-10, 0.10789
 2520, 230, 0.965, 6.11898e-15, 2.44759e-10, 0.10789
 2532, 231, 0.965, 6.86147e-15, 2.74459e-10, 0.10789
 2544, 232, 0.965, 7.69058e-15, 3.07623e-10, 0.10789
 2556, 233, 0.965, 8.61599e-15, 3.4464e-10, 0.10789
 2568, 234, 0.965, 9.64843e-15, 3.85937e-10, 0.10789