File: examples/Birch_TGA_Example/Work/Cone_2abpo9o1/birch_tga_1step_2_tga.csv
s,C,g/g,1/s,W/g,W/g
Time,Temp,Mass,MLR,MCC,DSC
 30, 21.0001, 0.999987, 4.80453e-07, 3.65008e-28, 0.0484218
 60, 22.0001, 0.999971, 5.51532e-07, 5.10066e-28, 0.0485805
 90, 23.0001, 0.999953, 6.32482e-07, 7.11164e-28, 0.0487612
 120, 24.0001, 0.999933, 7.24574e-07, 9.89331e-28, 0.0489667
 150, 25.0001, 0.99991, 8.29223e-07, 1.37326e-27, 0.0492002
 180, 26.0001, 0.999883, 9.4801e-07, 1.902e-27, 0.0494653
 210, 27.0001, 0.999853, 1.08269e-06, 2.6286e-27, 0.0497658
 240, 28.0001, 0.999818, 1.2352e-06, 3.62499e-27, 0.0501061
 270, 29.0001, 0.999778, 1.40771e-06, 4.98844e-27, 0.0504909
 300, 30.0001, 0.999733, 1.60258e-06, 6.85028e-27, 0.0509255
 330, 31.0001, 0.999682, 1.82243e-06, 9.38742e-27, 0.0514158
 360, 32.0001, 0.999624, 2.07013e-06, 1.28377e-26, 0.0519682
 390, 33.0001, 0.999557, 2.34882e-06, 1.75202e-26, 0.0525895
 420, 34.0001, 0.999482, 2.66189e-06, 2.38623e-26, 0.0532874
 450, 35.0001, 0.999397, 3.01305e-06, 3.24351e-26, 0.0540701
 480, 36.0001, 0.999301, 3.40628e-06, 4.40003e-26, 0.0549465
 510, 37.0001, 0.999193, 3.84585e-06, 5.95719e-26, 0.0559259
 540, 38.0001, 0.99907, 4.3363e-06, 8.04973e-26, 0.0570186
 570, 39.0001, 0.998932, 4.88242e-06, 1.08564e-25, 0.058235
 600, 40.0001, 0.998776, 5.48922e-06, 1.46136e-25, 0.0595863
 630, 41.0001, 0.998602, 6.16185e-06, 1.9634e-25, 0.0610839
 660, 42.0001, 0.998406, 6.90557e-06, 2.63297e-25, 0.0627394
 690, 43.0001, 0.998187, 7.72561e-06, 3.52433e-25, 0.0645643
 720, 44.0001, 0.997942, 8.62708e-06, 4.70878e-25, 0.0665699
 750, 45.0001, 0.997668, 9.61477e-06, 6.27986e-25, 0.0687666
 780, 46.0001, 0.997364, 1.06929e-05, 8.36003e-25, 0.0711637
 810, 47.0001, 0.997026, 1.18651e-05, 1.11094e-24, 0.0737688
 840, 48.0001, 0.996651, 1.31337e-05, 1.47368e-24, 0.076587
 870, 49.0001, 0.996237, 1.44998e-05, 1.95143e-24, 0.0796201
 900, 50.0001, 0.99578, 1.59624e-05, 2.57958e-24, 0.0828659
 930, 51.0001, 0.995278, 1.75185e-05, 3.40406e-24, 0.0863168
 960, 52.0001, 0.994728, 1.9162e-05, 4.4844e-24, 0.0899588
 990, 53.0001, 0.994127, 2.08834e-05, 5.89762e-24, 0.09377
 1020, 54.0001, 0.993474, 2.26693e-05, 7.74324e-24, 0.0977197
 1050, 55.0001, 0.992767, 2.45015e-05, 1.01496e-23, 0.101767
 1080, 56.0001, 0.992004, 2.63566e-05, 1.32819e-23, 0.105858
 1110, 57.0001, 0.991185, 2.82058e-05, 1.73525e-23, 0.109927
 1140, 58.0001, 0.990312, 3.0014e-05, 2.26342e-23, 0.113897
 1170, 59.0001, 0.989385, 3.17404e-05, 2.94762e-23, 0.117674
 1200, 60.0001, 0.988409, 3.33383e-05, 3.83258e-23, 0.121153
 1230, 61.0001, 0.987387, 3.47561e-05, 4.97539e-23, 0.124218
 1260, 62.0001, 0.986326, 3.59385e-05, 6.44892e-23, 0.126745
 1290, 63.0001, 0.985233, 3.68283e-05, 8.34597e-23, 0.128606
 1320, 64.0001, 0.98412, 3.73693e-05, 1.07846e-22, 0.129674
 1350, 65.0001, 0.982995, 3.75093e-05, 1.39146e-22, 0.129834
 1380, 66.0001, 0.981873, 3.72041e-05, 1.7926e-22, 0.128986
 1410, 67.0001, 0.980768, 3.6422e-05, 2.30596e-22, 0.127062
 1440, 68.0001, 0.979693, 3.5148e-05, 2.96195e-22, 0.124029
 1470, 69.0001, 0.978664, 3.3388e-05, 3.799e-22, 0.119902
 1500, 70.0001, 0.977694, 3.11719e-05, 4.86554e-22, 0.114752
 1530, 71.0001, 0.976798, 2.85552e-05, 6.22254e-22, 0.108706
 1560, 72.0001, 0.975984, 2.56186e-05, 7.94667e-22, 0.101947
 1590, 73.0001, 0.975263, 2.24643e-05, 1.01342e-21, 0.0947086
 1620, 74.0001, 0.974637, 1.92104e-05, 1.29058e-21, 0.0872584
 1650, 75.0001, 0.97411, 1.59822e-05, 1.64126e-21, 0.07988
 1680, 76.0001, 0.973677, 1.29016e-05, 2.08436e-21, 0.0728489
 1710, 77.0001, 0.973333, 1.00765e-05, 2.64346e-21, 0.0664084
 1740, 78.0001, 0.973069, 7.59038e-06, 3.34801e-21, 0.060746
 1770, 79.0001, 0.972874, 5.49563e-06, 4.23466e-21, 0.0559788
 1800, 80.0001, 0.972735, 3.81018e-06, 5.34898e-21, 0.0521458
 1830, 81.0001, 0.972641, 2.51929e-06, 6.74763e-21, 0.0492118
 1860, 82.0001, 0.972581, 1.58158e-06, 8.50086e-21, 0.0470816
 1890, 83.0001, 0.972543, 9.38173e-07, 1.06958e-20, 0.0456206
 1920, 84.0001, 0.972522, 5.2309e-07, 1.34401e-20, 0.0446784
 1950, 85.0001, 0.97251, 2.72579e-07, 1.6867e-20, 0.04411
 1980, 86.0001, 0.972505, 1.31928e-07, 2.11409e-20, 0.0437909
 2010, 87.0001, 0.972502, 5.89092e-08, 2.64646e-20, 0.0436254
 2040, 88.0001, 0.972501, 2.40911e-08, 3.30878e-20, 0.0435464
 2070, 89.0001, 0.9725, 8.95183e-09, 4.13175e-20, 0.0435121
 2100, 90.0001, 0.9725, 2.99648e-09, 5.1531e-20, 0.0434986
 2130, 91.0001, 0.9725, 8.95175e-10, 6.41914e-20, 0.0434938
 2160, 92.0001, 0.9725, 2.36271e-10, 7.98661e-20, 0.0434924
 2190, 93.0001, 0.9725, 5.44967e-11, 9.92497e-20, 0.0434919
 2220, 94.0001, 0.9725, 1.08553e-11, 1.23192e-19, 0.0434918
 2250, 95.0001, 0.9725, 1.84359e-12, 1.5273e-19, 0.0434918
 2280, 96.0001, 0.9725, 2.63279e-13, 1.89131e-19, 0.0434918
 2310, 97.0001, 0.9725, 3.11454e-14, 2.33937e-19, 0.0434918
 2340, 98.0001, 0.9725, 3.00311e-15, 2.89026e-19, 0.0434918
 2370, 99.0001, 0.9725, 2.31931e-16, 3.56683e-19, 0.0434918
 2400, 100, 0.9725, 1.40786e-17, 4.3968e-19, 0.0434918
 2430, 101, 0.9725, 6.58178e-19, 5.41385e-19, 0.0434918
 2460, 102, 0.9725, 2.31984e-20, 6.65877e-19, 0.0434918
 2490, 103, 0.9725, 6.2123e-22, 8.18095e-19, 0.0434918
 2520, 104, 0.9725, 3.62678e-23, 1.00401e-18, 0.0434918
 2550, 105, 0.9725, 3.09161e-23, 1.23085e-18, 0.0434918
 2580, 106, 0.9725, 3.76841e-23, 1.50731e-18, 0.0434918
 2610, 107, 0.9725, 4.60977e-23, 1.84391e-18, 0.0434918
 2640, 108, 0.9725, 5.6332e-23, 2.25328e-18, 0.0434918
 2670, 109, 0.9725, 6.87663e-23, 2.75065e-18, 0.0434918
 2700, 110, 0.9725, 8.3858e-23, 3.35432e-18, 0.0434918
 2730, 111, 0.9725, 1.02156e-22, 4.08624e-18, 0.0434918
 2760, 112, 0.9725, 1.24319e-22, 4.97278e-18, 0.0434918
 2790, 113, 0.9725, 1.51137e-22, 6.0455e-18, 0.0434918
 2820, 114, 0.9725, 1.83555e-22, 7.34221e-18, 0.0434918
 2850, 115, 0.9725, 2.22703e-22, 8.90813e-18, 0.0434918
 2880, 116, 0.9725, 2.69932e-22, 1.07973e-17, 0.0434918
 2910, 117, 0.9725, 3.26855e-22, 1.30742e-17, 0.0434918
 2940, 118, 0.9725, 3.95394e-22, 1.58158e-17, 0.0434918
 2970, 119, 0.9725, 4.77842e-22, 1.91137e-17, 0.0434918
 3000, 120, 0.9725, 5.76925e-22, 2.3077e-17, 0.0434918
 3030, 121, 0.9725, 6.95888e-22, 2.78355e-17, 0.0434918
 3060, 122, 0.9725, 8.38586e-22, 3.35434e-17, 0.0434918
 3090, 123, 0.9725, 1.00959e-21, 4.03837e-17, 0.0434918
 3120, 124, 0.9725, 1.21434e-21, 4.85735e-17, 0.0434918
 3150, 125, 0.9725, 1.45925e-21, 5.837e-17, 0.0434918
 3180, 126, 0.9725, 1.75194e-21, 7.00777e-17, 0.0434918
 3210, 127, 0.9725, 2.10142e-21, 8.40569e-17, 0.0434918
 3240, 128, 0.9725, 2.51833e-21, 1.00733e-16, 0.0434918
 3270, 129, 0.9725, 3.01524e-21, 1.2061e-16, 0.0434918
 3300, 130, 0.9725, 3.60697e-21, 1.44279e-16, 0.0434918
 3330, 131, 0.9725, 4.31101e-21, 1.7244e-16, 0.0434918
 3360, 132, 0.9725, 5.14793e-21, 2.05917e-16, 0.0434918
 3390, 133, 0.9725, 6.14195e-21, 2.45678e-16, 0.0434918
 3420, 134, 0.9725, 7.32156e-21, 2.92863e-16, 0.0434918
 3450, 135, 0.9725, 8.72022e-21, 3.48809e-16, 0.0434918
 3480, 136, 0.9725, 1.03772e-20, 4.15088e-16, 0.0434918
 3510, 137, 0.9725, 1.23385e-20, 4.93542e-16, 0.0434918
 3540, 138, 0.9725, 1.46583e-20, 5.8633e-16, 0.0434918
 3570, 139, 0.9725, 1.73995e-20, 6.95981e-16, 0.0434918
 3600, 140, 0.9725, 2.06363e-20, 8.25453e-16, 0.0434918
 3630, 141, 0.9725, 2.44551e-20, 9.78204e-16, 0.0434918
 3660, 142, 0.9725, 2.89568e-20, 1.15827e-15, 0.0434918
 3690, 143, 0.9725, 3.42594e-20, 1.37038e-15, 0.0434918
 3720, 144, 0.9725, 4.05004e-20, 1.62002e-15, 0.0434918
 3750, 145, 0.9725, 4.78399e-20, 1.9136e-15, 0.0434918
 3780, 146, 0.9725, 5.64647e-20, 2.25859e-15, 0.0434918
 3810, 147, 0.9725, 6.65917e-20, 2.66367e-15, 0.0434918
 3840, 148, 0.9725, 7.84736e-20, 3.13894e-15, 0.0434918
 3870, 149, 0.9725, 9.24036e-20, 3.69615e-15, 0.0434918
 3900, 150, 0.9725, 1.08722e-19, 4.3489e-15, 0.0434918
 3930, 151, 0.9725, 1.27825e-19, 5.113e-15, 0.0434918
 3960, 152, 0.9725, 1.5017e-19, 6.00679e-15, 0.0434918
 3990, 153, 0.9725, 1.76287e-19, 7.05148e-15, 0.0434918
 4020, 154, 0.9725, 2.06791e-19, 8.27165e-15, 0.0434918
 4050, 155, 0.9725, 2.42393e-19, 9.69573e-15, 0.0434918
 4080, 156, 0.9725, 2.83914e-19, 1.13566e-14, 0.0434918
 4110, 157, 0.9725, 3.32303e-19, 1.32921e-14, 0.0434918
 4140, 158, 0.9725, 3.88656e-19, 1.55462e-14, 0.0434918
 4170, 159, 0.9725, 4.54235e-19, 1.81694e-14, 0.0434918
 4200, 160, 0.9725, 5.30497e-19, 2.12199e-14, 0.0434918
 4230, 161, 0.9725, 6.19121e-19, 2.47648e-14, 0.0434918
 4260, 162, 0.9725, 7.22037e-19, 2.88815e-14, 0.0434918
 4290, 163, 0.9725, 8.41467e-19, 3.36587e-14, 0.0434918
 4320, 164, 0.9725, 9.79965e-19, 3.91986e-14, 0.0434918
 4350, 165, 0.9725, 1.14047e-18, 4.56186e-14, 0.0434918
 4380, 166, 0.9725, 1.32634e-18, 5.30535e-14, 0.0434918
 4410, 167, 0.9725, 1.54144e-18, 6.16577e-14, 0.0434918
 4440, 168, 0.9725, 1.79021e-18, 7.16085e-14, 0.0434918
 4470, 169, 0.9725, 2.07773e-18, 8.31091e-14, 0.0434918
 4500, 170, 0.9725, 2.4098e-18, 9.63919e-14, 0.0434918
 4530, 171, 0.9725, 2.79307e-18, 1.11723e-13, 0.0434918
 4560, 172, 0.9725, 3.23516e-18, 1.29406e-13, 0.0434918
 4590, 173, 0.9725, 3.74476e-18, 1.4979e-13, 0.0434918
 4620, 174, 0.9725, 4.33179e-18, 1.73272e-13, 0.0434918
 4650, 175, 0.9725, 5.00759e-18, 2.00304e-13, 0.0434918
 4680, 176, 0.9725, 5.78509e-18, 2.31403e-13, 0.0434918
 4710, 177, 0.9725, 6.67901e-18, 2.67161e-13, 0.0434918
 4740, 178, 0.9725, 7.70616e-18, 3.08247e-13, 0.0434918
 4770, 179, 0.9725, 8.88565e-18, 3.55426e-13, 0.0434918
 4800, 180, 0.9725, 1.02392e-17, 4.09569e-13, 0.0434918
 4830, 181, 0.9725, 1.17916e-17, 4.71666e-13, 0.0434918
 4860, 182, 0.9725, 1.3571e-17, 5.4284e-13, 0.0434918
 4890, 183, 0.9725, 1.56092e-17, 6.2437e-13, 0.0434918
 4920, 184, 0.9725, 1.79426e-17, 7.17705e-13, 0.0434918
 4950, 185, 0.9725, 2.06123e-17, 8.24491e-13, 0.0434918
 4980, 186, 0.9725, 2.36648e-17, 9.46593e-13, 0.0434918
 5010, 187, 0.9725, 2.71531e-17, 1.08613e-12, 0.0434918
 5040, 188, 0.9725, 3.11371e-17, 1.24548e-12, 0.0434918
 5070, 189, 0.9725, 3.56844e-17, 1.42738e-12, 0.0434918
 5100, 190, 0.9725, 4.08718e-17, 1.63487e-12, 0.0434918
 5130, 191, 0.9725, 4.67858e-17, 1.87143e-12, 0.0434918
 5160, 192, 0.9725, 5.35245e-17, 2.14098e-12, 0.0434918
 5190, 193, 0.9725, 6.11985e-17, 2.44794e-12, 0.0434918
 5220, 194, 0.9725, 6.99325e-17, 2.7973e-12, 0.0434918
 5250, 195, 0.9725, 7.98676e-17, 3.1947e-12, 0.0434918
 5280, 196, 0.9725, 9.11624e-17, 3.6465e-12, 0.0434918
 5310, 197, 0.9725, 1.03996e-16, 4.15984e-12, 0.0434918
 5340, 198, 0.9725, 1.1857e-16, 4.7428e-12, 0.0434918
 5370, 199, 0.9725, 1.35111e-16, 5.40445e-12, 0.0434918
 5400, 200, 0.9725, 1.53875e-16, 6.15501e-12, 0.0434918
 5430, 201, 0.9725, 1.75149e-16, 7.00596e-12, 0.0434918
 5460, 202, 0.9725, 1.99255e-16, 7.97021e-12, 0.0434918
 5490, 203, 0.9725, 2.26556e-16, 9.06226e-12, 0.0434918
 5520, 204, 0.9725, 2.5746e-16, 1.02984e-11, 0.0434918
 5550, 205, 0.9725, 2.92422e-16, 1.16969e-11, 0.0434918
 5580, 206, 0.9725, 3.31956e-16, 1.32782e-11, 0.0434918
 5610, 207, 0.9725, 3.76635e-16, 1.50654e-11, 0.0434918
 5640, 208, 0.9725, 4.27104e-16, 1.70842e-11, 0.0434918
 5670, 209, 0.9725, 4.84083e-16, 1.93633e-11, 0.0434918
 5700, 210, 0.9725, 5.48379e-16, 2.19352e-11, 0.0434918
 5730, 211, 0.9725, 6.20895e-16, 2.48358e-11, 0.0434918
 5760, 212, 0.9725, 7.0264e-16, 2.81056e-11, 0.0434918
 5790, 213, 0.9725, 7.94743e-16, 3.17897e-11, 0.0434918
 5820, 214, 0.9725, 8.98465e-16, 3.59386e-11, 0.0434918
 5850, 215, 0.9725, 1.01521e-15, 4.06085e-11, 0.0434918
 5880, 216, 0.9725, 1.14656e-15, 4.58624e-11, 0.0434918
 5910, 217, 0.9725, 1.29425e-15, 5.17702e-11, 0.0434918
 5940, 218, 0.9725, 1.46026e-15, 5.84102e-11, 0.0434918
 5970, 219, 0.9725, 1.64674e-15, 6.58696e-11, 0.0434918
 6000, 220, 0.9725, 1.85614e-15, 7.42454e-11, 0.0434918
 6030, 221, 0.9725, 2.09114e-15, 8.36458e-11, 0.0434918
 6060, 222, 0.9725, 2.35477e-15, 9.41909e-11, 0.0434918
 6090, 223, 0.9725, 2.65037e-15, 1.06015e-10, 0.0434918
 6120, 224, 0.9725, 2.98165e-15, 1.19266e-10, 0.0434918
 6150, 225, 0.9725, 3.35276e-15, 1.3411e-10, 0.0434918
 6180, 226, 0.9725, 3.76828e-15, 1.50731e-10, 0.0434918
 6210, 227, 0.9725, 4.23332e-15, 1.69333e-10, 0.0434918
 6240, 228, 0.9725, 4.75355e-15, 1.90142e-10, 0.0434918
 6270, 229, 0.9725, 5.33524e-15, 2.13409e-10, 0.0434918
 6300, 230, 0.9725, 5.98536e-15, 2.39414e-10, 0.0434918
 6330, 231, 0.9725, 6.71164e-15, 2.68466e-10, 0.0434918
 6360, 232, 0.9725, 7.52265e-15, 3.00906e-10, 0.0434918
 6390, 233, 0.9725, 8.42784e-15, 3.37114e-10, 0.0434918
 6420, 234, 0.9725, 9.43774e-15, 3.77509e-10, 0.0434918
 6450, 235, 0.9725, 1.05639e-14, 4.22557e-10, 0.0434918
 6480, 236, 0.9725, 1.18193e-14, 4.72771e-10, 0.0434918
 6510, 237, 0.9725, 1.3218e-14, 5.2872e-10, 0.0434918
 6540, 238, 0.9725, 1.47758e-14, 5.91031e-10, 0.0434918
 6570, 239, 0.9725, 1.65099e-14, 6.60397e-10, 0.0434918
 6600, 240, 0.9725, 1.84397e-14, 7.37586e-10, 0.0434918
 6630, 241, 0.9725, 2.05861e-14, 8.23443e-10, 0.0434918
 6660, 242, 0.9725, 2.29725e-14, 9.18901e-10, 0.0434918
 6690, 243, 0.9725, 2.56247e-14, 1.02499e-09, 0.0434918
 6720, 244, 0.9725, 2.85711e-14, 1.14284e-09, 0.0434918
 6750, 245, 0.9725, 3.18428e-14, 1.27371e-09, 0.0434918
 6780, 246, 0.9725, 3.54743e-14, 1.41897e-09, 0.0434918
 6810, 247, 0.9725, 3.95036e-14, 1.58014e-09, 0.0434918
 6840, 248, 0.9725, 4.39724e-14, 1.7589e-09, 0.0434918
 6870, 249, 0.9725, 4.89267e-14, 1.95707e-09, 0.0434918
 6900, 250, 0.9725, 5.44169e-14, 2.17668e-09, 0.0434918
 6930, 251, 0.9725, 6.04986e-14, 2.41994e-09, 0.0434918
 6960, 252, 0.9725, 6.72329e-14, 2.68932e-09, 0.0434918
 6990, 253, 0.9725, 7.46869e-14, 2.98748e-09, 0.0434918
 7020, 254, 0.9725, 8.29341e-14, 3.31737e-09, 0.0434918
 7050, 255, 0.9725, 9.20556e-14, 3.68222e-09, 0.0434919
 7080, 256, 0.9725, 1.0214e-13, 4.0856e-09, 0.0434918
 7110, 257, 0.9725, 1.13285e-13, 4.53138e-09, 0.0434918
 7140, 258, 0.9725, 1.25596e-13, 5.02385e-09, 0.0434918
 7170, 259, 0.9725, 1.39192e-13, 5.56768e-09, 0.0434918
 7200, 260, 0.9725, 1.542e-13, 6.168e-09, 0.0434918
 7230, 261, 0.9725, 1.70761e-13, 6.83043e-09, 0.0434918
 7260, 262, 0.9725, 1.89028e-13, 7.56111e-09, 0.0434918
 7290, 263, 0.9725, 2.0917e-13, 8.36679e-09, 0.0434918
 7320, 264, 0.9725, 2.31371e-13, 9.25483e-09, 0.0434918
 7350, 265, 0.9725, 2.55832e-13, 1.02333e-08, 0.0434918
 7380, 266, 0.9725, 2.82774e-13, 1.1311e-08, 0.0434918
 7410, 267, 0.9725, 3.12438e-13, 1.24975e-08, 0.0434918
 7440, 268, 0.9725, 3.45086e-13, 1.38035e-08, 0.0434918
 7470, 269, 0.9725, 3.81006e-13, 1.52403e-08, 0.0434918
 7500, 270, 0.9725, 4.20512e-13, 1.68205e-08, 0.0434917
 7530, 271, 0.9725, 4.63945e-13, 1.85578e-08, 0.0434918
 7560, 272, 0.9725, 5.11681e-13, 2.04672e-08, 0.0434918
 7590, 273, 0.9725, 5.64125e-13, 2.2565e-08, 0.0434918
 7620, 274, 0.9725, 6.21723e-13, 2.48689e-08, 0.0434918
 7650, 275, 0.9725, 6.84958e-13, 2.73983e-08, 0.0434918
 7680, 276, 0.9725, 7.54359e-13, 3.01744e-08, 0.0434918
 7710, 277, 0.9725, 8.305e-13, 3.322e-08, 0.0434918
 7740, 278, 0.9725, 9.14008e-13, 3.65603e-08, 0.0434918
 7770, 279, 0.9725, 1.00556e-12, 4.02225e-08, 0.0434918
 7800, 280, 0.9725, 1.10591e-12, 4.42363e-08, 0.0434919
 7830, 281, 0.9725, 1.21585e-12, 4.8634e-08, 0.0434918
 7860, 282, 0.9725, 1.33626e-12, 5.34505e-08, 0.0434918
 7890, 283, 0.9725, 1.4681e-12, 5.87241e-08, 0.0434918
 7920, 284, 0.9725, 1.61241e-12, 6.44963e-08, 0.0434918
 7950, 285, 0.9725, 1.7703e-12, 7.0812e-08, 0.0434918
 7980, 286, 0.9725, 1.943e-12, 7.77201e-08, 0.0434918
 8010, 287, 0.9725, 2.13185e-12, 8.52739e-08, 0.0434918
 8040, 288, 0.9725, 2.33827e-12, 9.35309e-08, 0.0434918
 8070, 289, 0.9725, 2.56384e-12, 1.02554e-07, 0.0434919
 8100, 290, 0.9725, 2.81026e-12, 1.1241e-07, 0.0434918
 8130, 291, 0.9725, 3.07935e-12, 1.23174e-07, 0.0434918
 8160, 292, 0.9725, 3.37312e-12, 1.34925e-07, 0.0434918
 8190, 293, 0.9725, 3.69372e-12, 1.47749e-07, 0.0434918
 8220, 294, 0.9725, 4.0435e-12, 1.6174e-07, 0.0434918
 8250, 295, 0.9725, 4.42499e-12, 1.77e-07, 0.0434918
 8280, 296, 0.9725, 4.84095e-12, 1.93638e-07, 0.0434918
 8310, 297, 0.9725, 5.29433e-12, 2.11773e-07, 0.0434918
 8340, 298, 0.9725, 5.78836e-12, 2.31534e-07, 0.0434918
 8370, 299, 0.9725, 6.32652e-12, 2.53061e-07, 0.0434918
 8400, 300, 0.9725, 6.91257e-12, 2.76503e-07, 0.0434918
 8430, 301, 0.9725, 7.55057e-12, 3.02023e-07, 0.0434918
 8460, 302, 0.9725, 8.24493e-12, 3.29797e-07, 0.0434918
 8490, 303, 0.9725, 9.00039e-12, 3.60016e-07, 0.0434918
 8520, 304, 0.9725, 9.82209e-12, 3.92884e-07, 0.0434918
 8550, 305, 0.9725, 1.07156e-11, 4.28623e-07, 0.0434918
 8580, 306, 0.9725, 1.16868e-11, 4.67472e-07, 0.0434918
 8610, 307, 0.9725, 1.27423e-11, 5.09691e-07, 0.0434918
 8640, 308, 0.9725, 1.38889e-11, 5.55557e-07, 0.0434918
 8670, 309, 0.9725, 1.51343e-11, 6.05371e-07, 0.0434919
 8700, 310, 0.9725, 1.64864e-11, 6.59457e-07, 0.0434919
 8730, 311, 0.9725, 1.79541e-11, 7.18165e-07, 0.0434918
 8760, 312, 0.9725, 1.95468e-11, 7.81872e-07, 0.0434918
 8790, 313, 0.9725, 2.12746e-11, 8.50983e-07, 0.0434918
 8820, 314, 0.9725, 2.31484e-11, 9.25936e-07, 0.0434918
 8850, 315, 0.9725, 2.518e-11, 1.0072e-06, 0.0434918
 8880, 316, 0.9725, 2.73822e-11, 1.09529e-06, 0.0434918
 8910, 317, 0.9725, 2.97684e-11, 1.19074e-06, 0.0434918
 8940, 318, 0.9725, 3.23535e-11, 1.29414e-06, 0.0434918
 8970, 319, 0.9725, 3.51531e-11, 1.40612e-06, 0.0434918
 9000, 320, 0.9725, 3.81843e-11, 1.52737e-06, 0.0434918
 9030, 321, 0.9725, 4.14654e-11, 1.65862e-06, 0.0434918
 9060, 322, 0.9725, 4.50159e-11, 1.80064e-06, 0.0434918
 9090, 323, 0.9725, 4.8857e-11, 1.95428e-06, 0.0434918
 9120, 324, 0.9725, 5.30113e-11, 2.12045e-06, 0.0434919
 9150, 325, 0.9725, 5.75031e-11, 2.30012e-06, 0.0434918
 9180, 326, 0.9725, 6.23586e-11, 2.49434e-06, 0.0434919
 9210, 327, 0.9725, 6.76058e-11, 2.70423e-06, 0.0434918
 9240, 328, 0.9725, 7.32749e-11, 2.93099e-06, 0.0434918
 9270, 329, 0.9725, 7.93981e-11, 3.17592e-06, 0.0434918
 9300, 330, 0.9725, 8.601e-11, 3.4404e-06, 0.0434918
 9330, 331, 0.9725, 9.3148e-11, 3.72592e-06, 0.0434919
 9360, 332, 0.9725, 1.00852e-10, 4.03407e-06, 0.0434918
 9390, 333, 0.9725, 1.09164e-10, 4.36656e-06, 0.0434918
 9420, 334, 0.9725, 1.1813e-10, 4.72522e-06, 0.0434918
 9450, 335, 0.9725, 1.278e-10, 5.11201e-06, 0.0434918
 9480, 336, 0.9725, 1.38226e-10, 5.52904e-06, 0.0434918
 9510, 337, 0.9725, 1.49464e-10, 5.97855e-06, 0.0434919
 9540, 338, 0.9725, 1.61574e-10, 6.46295e-06, 0.0434919
 9570, 339, 0.9725, 1.7462e-10, 6.98482e-06, 0.0434918
 9600, 340, 0.9725, 1.88673e-10, 7.54692e-06, 0.0434919
 9630, 341, 0.9725, 2.03805e-10, 8.1522e-06, 0.0434919
 9660, 342, 0.9725, 2.20095e-10, 8.80381e-06, 0.0434918
 9690, 343, 0.9725, 2.37628e-10, 9.50514e-06, 0.0434919
 9720, 344, 0.9725, 2.56495e-10, 1.02598e-05, 0.0434918
 9750, 345, 0.9725, 2.7679e-10, 1.10716e-05, 0.0434919
 9780, 346, 0.9725, 2.98618e-10, 1.19447e-05, 0.0434919
 9810, 347, 0.9725, 3.22089e-10, 1.28835e-05, 0.0434919
 9840, 348, 0.9725, 3.47319e-10, 1.38928e-05, 0.0434919
 9870, 349, 0.9725, 3.74436e-10, 1.49774e-05, 0.0434919
 9900, 350, 0.9725, 4.03571e-10, 1.61429e-05, 0.0434919
 9930, 351, 0.9725, 4.3487e-10, 1.73948e-05, 0.0434919
 9960, 352, 0.9725, 4.68484e-10, 1.87394e-05, 0.0434919
 9990, 353, 0.9725, 5.04576e-10, 2.01831e-05, 0.0434919
 10020, 354, 0.9725, 5.43321e-10, 2.17328e-05, 0.0434919
 10050, 355, 0.9725, 5.84902e-10, 2.33961e-05, 0.0434919
 10080, 356, 0.9725, 6.29518e-10, 2.51807e-05, 0.0434919
 10110, 357, 0.9725, 6.7738e-10, 2.70952e-05, 0.0434919
 10140, 358, 0.9725, 7.28711e-10, 2.91484e-05, 0.043492
 10170, 359, 0.9725, 7.8375e-10, 3.135e-05, 0.043492
 10200, 360, 0.9725, 8.42753e-10, 3.37101e-05, 0.043492
 10230, 361, 0.9725, 9.05991e-10, 3.62396e-05, 0.043492
 10260, 362, 0.9725, 9.73752e-10, 3.89501e-05, 0.0434921
 10290, 363, 0.9725, 1.04634e-09, 4.18537e-05, 0.0434921
 10320, 364, 0.9725, 1.12409e-09, 4.49637e-05, 0.0434921
 10350, 365, 0.972499, 1.20735e-09, 4.82939e-05, 0.0434921
 10380, 366, 0.972499, 1.29648e-09, 5.18592e-05, 0.0434921
 10410, 367, 0.972499, 1.39188e-09, 5.56752e-05, 0.0434921
 10440, 368, 0.972499, 1.49397e-09, 5.97589e-05, 0.0434921
 10470, 369, 0.972499, 1.6032e-09, 6.41279e-05, 0.0434922
 10500, 370, 0.972499, 1.72003e-09, 6.88012e-05, 0.0434922
 10530, 371, 0.972499, 1.84498e-09, 7.3799e-05, 0.0434923
 10560, 372, 0.972499, 1.97857e-09, 7.91427e-05, 0.0434923
 10590, 373, 0.972499, 2.12137e-09, 8.48549e-05, 0.0434923
 10620, 374, 0.972499, 2.27399e-09, 9.09598e-05, 0.0434923
 10650, 375, 0.972499, 2.43708e-09, 9.7483e-05, 0.0434924
 10680, 376, 0.972499, 2.61129e-09, 0.000104452, 0.0434925
 10710, 377, 0.972499, 2.79737e-09, 0.000111895, 0.0434925
 10740, 378, 0.972499, 2.99608e-09, 0.000119843, 0.0434926
 10770, 379, 0.972499, 3.20822e-09, 0.000128329, 0.0434926
 10800, 380, 0.972499, 3.43467e-09, 0.000137387, 0.0434926
 10830, 381, 0.972498, 3.67633e-09, 0.000147053, 0.0434927
 10860, 382, 0.972498, 3.93418e-09, 0.000157367, 0.0434927
 10890, 383, 0.972498, 4.20924e-09, 0.00016837, 0.0434928
 10920, 384, 0.972498, 4.50261e-09, 0.000180104, 0.0434929
 10950, 385, 0.972498, 4.81544e-09, 0.000192617, 0.043493
 10980, 386, 0.972498, 5.14895e-09, 0.000205958, 0.0434931
 11010, 387, 0.972498, 5.50445e-09, 0.000220178, 0.0434931
 11040, 388, 0.972497, 5.8833e-09, 0.000235332, 0.0434933
 11070, 389, 0.972497, 6.28696e-09, 0.000251479, 0.0434933
 11100, 390, 0.972497, 6.71698e-09, 0.000268679, 0.0434934
 11130, 391, 0.972497, 7.17497e-09, 0.000286999, 0.0434936
 11160, 392, 0.972497, 7.66268e-09, 0.000306507, 0.0434937
 11190, 393, 0.972496, 8.18192e-09, 0.000327277, 0.0434938
 11220, 394, 0.972496, 8.73463e-09, 0.000349385, 0.0434939
 11250, 395, 0.972496, 9.32285e-09, 0.000372914, 0.043494
 11280, 396, 0.972496, 9.94874e-09, 0.00039795, 0.0434942
 11310, 397, 0.972495, 1.06146e-08, 0.000424584, 0.0434944
 11340, 398, 0.972495, 1.13228e-08, 0.000452913, 0.0434945
 11370, 399, 0.972495, 1.2076e-08, 0.00048304, 0.0434948
 11400, 400, 0.972494, 1.28768e-08, 0.000515072, 0.0434949
 11430, 401, 0.972494, 1.37281e-08, 0.000549124, 0.0434952
 11460, 402, 0.972493, 1.46329e-08, 0.000585316, 0.0434954
 11490, 403, 0.972493, 1.55944e-08, 0.000623775, 0.0434956
 11520, 404, 0.972492, 1.66159e-08, 0.000664636, 0.0434958
 11550, 405, 0.972492, 1.7701e-08, 0.000708042, 0.0434961
 11580, 406, 0.972491, 1.88535e-08, 0.000754142, 0.0434964
 11610, 407, 0.972491, 2.00773e-08, 0.000803094, 0.0434967
 11640, 408, 0.97249, 2.13766e-08, 0.000855066, 0.043497
 11670, 409, 0.97249, 2.27558e-08, 0.000910233, 0.0434973
 11700, 410, 0.972489, 2.42196e-08, 0.000968783, 0.0434977
 11730, 411, 0.972488, 2.57728e-08, 0.00103091, 0.043498
 11760, 412, 0.972487, 2.74206e-08, 0.00109682, 0.0434985
 11790, 413, 0.972486, 2.91685e-08, 0.00116674, 0.0434989
 11820, 414, 0.972486, 3.10222e-08, 0.00124089, 0.0434994
 11850, 415, 0.972485, 3.29879e-08, 0.00131952, 0.0434998
 11880, 416, 0.972484, 3.50718e-08, 0.00140287, 0.0435004
 11910, 417, 0.972483, 3.72808e-08, 0.00149123, 0.0435008
 11940, 418, 0.972481, 3.96219e-08, 0.00158488, 0.0435014
 11970, 419, 0.97248, 4.21026e-08, 0.0016841, 0.043502
 12000, 420, 0.972479, 4.47307e-08, 0.00178923, 0.0435026
 12030, 421, 0.972477, 4.75146e-08, 0.00190059, 0.0435034
 12060, 422, 0.972476, 5.0463e-08, 0.00201852, 0.043504
 12090, 423, 0.972474, 5.35851e-08, 0.00214341, 0.0435048
 12120, 424, 0.972473, 5.68906e-08, 0.00227562, 0.0435056
 12150, 425, 0.972471, 6.03896e-08, 0.00241558, 0.0435065
 12180, 426, 0.972469, 6.40928e-08, 0.00256371, 0.0435074
 12210, 427, 0.972467, 6.80115e-08, 0.00272046, 0.0435082
 12240, 428, 0.972465, 7.21576e-08, 0.00288631, 0.0435092
 12270, 429, 0.972463, 7.65436e-08, 0.00306174, 0.0435103
 12300, 430, 0.97246, 8.11825e-08, 0.0032473, 0.0435114
 12330, 431, 0.972458, 8.60881e-08, 0.00344352, 0.0435126
 12360, 432, 0.972455, 9.1275e-08, 0.003651, 0.0435139
 12390, 433, 0.972452, 9.67583e-08, 0.00387033, 0.0435151
 12420, 434, 0.972449, 1.02554e-07, 0.00410216, 0.0435166
 12450, 435, 0.972446, 1.08679e-07, 0.00434717, 0.043518
 12480, 436, 0.972443, 1.15151e-07, 0.00460605, 0.0435196
 12510, 437, 0.972439, 1.21989e-07, 0.00487955, 0.0435213
 12540, 438, 0.972436, 1.29211e-07, 0.00516845, 0.043523
 12570, 439, 0.972432, 1.36839e-07, 0.00547357, 0.0435249
 12600, 440, 0.972427, 1.44894e-07, 0.00579577, 0.0435268
 12630, 441, 0.972423, 1.53399e-07, 0.00613595, 0.0435288
 12660, 442, 0.972418, 1.62376e-07, 0.00649506, 0.043531
 12690, 443, 0.972413, 1.71852e-07, 0.00687409, 0.0435332
 12720, 444, 0.972408, 1.81852e-07, 0.00727408, 0.0435356
 12750, 445, 0.972402, 1.92403e-07, 0.00769614, 0.0435381
 12780, 446, 0.972396, 2.03535e-07, 0.0081414, 0.0435408
 12810, 447, 0.97239, 2.15277e-07, 0.00861108, 0.0435437
 12840, 448, 0.972383, 2.27661e-07, 0.00910643, 0.0435466
 12870, 449, 0.972376, 2.40719e-07, 0.00962878, 0.0435498
 12900, 450, 0.972369, 2.54488e-07, 0.0101795, 0.0435531
 12930, 451, 0.972361, 2.69002e-07, 0.0107601, 0.0435565
 12960, 452, 0.972353, 2.84301e-07, 0.011372, 0.0435603
 12990, 453, 0.972344, 3.00424e-07, 0.0120169, 0.0435641
 13020, 454, 0.972335, 3.17412e-07, 0.0126965, 0.0435681
 13050, 455, 0.972325, 3.35311e-07, 0.0134124, 0.0435724
 13080, 456, 0.972315, 3.54165e-07, 0.0141666, 0.0435769
 13110, 457, 0.972304, 3.74023e-07, 0.0149609, 0.0435816
 13140, 458, 0.972292, 3.94935e-07, 0.0157974, 0.0435867
 13170, 459, 0.97228, 4.16954e-07, 0.0166782, 0.0435919
 13200, 460, 0.972267, 4.40135e-07, 0.0176054, 0.0435974
 13230, 461, 0.972254, 4.64536e-07, 0.0185814, 0.0436033
 13260, 462, 0.972239, 4.90217e-07, 0.0196087, 0.0436094
 13290, 463, 0.972224, 5.17242e-07, 0.0206897, 0.0436159
 13320, 464, 0.972208, 5.45677e-07, 0.0218271, 0.0436226
 13350, 465, 0.972191, 5.75591e-07, 0.0230236, 0.0436297
 13380, 466, 0.972174, 6.07056e-07, 0.0242823, 0.0436373
 13410, 467, 0.972155, 6.40149e-07, 0.025606, 0.0436451
 13440, 468, 0.972135, 6.74948e-07, 0.0269979, 0.0436535
 13470, 469, 0.972114, 7.11536e-07, 0.0284614, 0.0436621
 13500, 470, 0.972093, 7.49999e-07, 0.03, 0.0436713
 13530, 471, 0.972069, 7.90429e-07, 0.0316172, 0.0436809
 13560, 472, 0.972045, 8.3292e-07, 0.0333168, 0.0436911
 13590, 473, 0.972019, 8.7757e-07, 0.0351028, 0.0437017
 13620, 474, 0.971992, 9.24483e-07, 0.0369793, 0.0437128
 13650, 475, 0.971964, 9.73766e-07, 0.0389506, 0.0437246
 13680, 476, 0.971934, 1.02553e-06, 0.0410213, 0.0437369
 13710, 477, 0.971902, 1.0799e-06, 0.043196, 0.0437498
 13740, 478, 0.971869, 1.13699e-06, 0.0454796, 0.0437633
 13770, 479, 0.971834, 1.19693e-06, 0.0478772, 0.0437776
 13800, 480, 0.971797, 1.25986e-06, 0.0503943, 0.0437925
 13830, 481, 0.971758, 1.32591e-06, 0.0530363, 0.0438081
 13860, 482, 0.971718, 1.39523e-06, 0.0558092, 0.0438246
 13890, 483, 0.971675, 1.46797e-06, 0.0587189, 0.0438419
 13920, 484, 0.97163, 1.5443e-06, 0.0617719, 0.04386
 13950, 485, 0.971582, 1.62437e-06, 0.0649748, 0.0438789
 13980, 486, 0.971532, 1.70836e-06, 0.0683343, 0.0438988
 14010, 487, 0.97148, 1.79645e-06, 0.0718578, 0.0439198
 14040, 488, 0.971424, 1.88882e-06, 0.0755528, 0.0439415
 14070, 489, 0.971366, 1.98567e-06, 0.079427, 0.0439645
 14100, 490, 0.971305, 2.08721e-06, 0.0834886, 0.0439885
 14130, 491, 0.971241, 2.19365e-06, 0.087746, 0.0440137
 14160, 492, 0.971173, 2.3052e-06, 0.0922082, 0.04404
 14190, 493, 0.971102, 2.42211e-06, 0.0968843, 0.0440678
 14220, 494, 0.971028, 2.5446e-06, 0.101784, 0.0440967
 14250, 495, 0.97095, 2.67293e-06, 0.106917, 0.044127
 14280, 496, 0.970868, 2.80736e-06, 0.112294, 0.0441587
 14310, 497, 0.970781, 2.94815e-06, 0.117926, 0.044192
 14340, 498, 0.970691, 3.0956e-06, 0.123824, 0.0442269
 14370, 499, 0.970595, 3.24999e-06, 0.13, 0.0442633
 14400, 500, 0.970496, 3.41163e-06, 0.136465, 0.0443014
 14430, 501, 0.970391, 3.58084e-06, 0.143234, 0.0443412
 14460, 502, 0.970281, 3.75794e-06, 0.150318, 0.044383
 14490, 503, 0.970165, 3.94329e-06, 0.157731, 0.0444266
 14520, 504, 0.970044, 4.13723e-06, 0.165489, 0.0444724
 14550, 505, 0.969917, 4.34014e-06, 0.173606, 0.0445202
 14580, 506, 0.969783, 4.55241e-06, 0.182096, 0.0445701
 14610, 507, 0.969644, 4.77443e-06, 0.190977, 0.0446224
 14640, 508, 0.969497, 5.00663e-06, 0.200265, 0.044677
 14670, 509, 0.969343, 5.24943e-06, 0.209977, 0.0447341
 14700, 510, 0.969182, 5.50328e-06, 0.220131, 0.0447938
 14730, 511, 0.969013, 5.76866e-06, 0.230746, 0.0448562
 14760, 512, 0.968836, 6.04604e-06, 0.241842, 0.0449213
 14790, 513, 0.96865, 6.33594e-06, 0.253437, 0.0449894
 14820, 514, 0.968455, 6.63886e-06, 0.265554, 0.0450605
 14850, 515, 0.968251, 6.95536e-06, 0.278214, 0.0451348
 14880, 516, 0.968038, 7.28599e-06, 0.29144, 0.0452123
 14910, 517, 0.967814, 7.63134e-06, 0.305254, 0.0452933
 14940, 518, 0.96758, 7.99201e-06, 0.31968, 0.0453779
 14970, 519, 0.967334, 8.36863e-06, 0.334745, 0.0454661
 15000, 520, 0.967077, 8.76184e-06, 0.350474, 0.0455582
 15030, 521, 0.966808, 9.17232e-06, 0.366893, 0.0456543
 15060, 522, 0.966527, 9.60077e-06, 0.384031, 0.0457546
 15090, 523, 0.966232, 1.00479e-05, 0.401916, 0.0458592
 15120, 524, 0.965924, 1.05145e-05, 0.420578, 0.0459684
 15150, 525, 0.965601, 1.10012e-05, 0.440049, 0.0460822
 15180, 526, 0.965264, 1.1509e-05, 0.460359, 0.0462008
 15210, 527, 0.96491, 1.20386e-05, 0.481543, 0.0463245
 15240, 528, 0.964541, 1.25909e-05, 0.503634, 0.0464535
 15270, 529, 0.964155, 1.31667e-05, 0.526668, 0.046588
 15300, 530, 0.963751, 1.3767e-05, 0.55068, 0.046728
 15330, 531, 0.963328, 1.43927e-05, 0.57571, 0.046874
 15360, 532, 0.962887, 1.50449e-05, 0.601795, 0.047026
 15390, 533, 0.962425, 1.57244e-05, 0.628975, 0.0471844
 15420, 534, 0.961943, 1.64323e-05, 0.657293, 0.0473493
 15450, 535, 0.961439, 1.71698e-05, 0.686791, 0.047521
 15480, 536, 0.960913, 1.79378e-05, 0.717514, 0.0476998
 15510, 537, 0.960363, 1.87376e-05, 0.749505, 0.0478858
 15540, 538, 0.959788, 1.95703e-05, 0.782813, 0.0480795
 15570, 539, 0.959188, 2.04371e-05, 0.817485, 0.048281
 15600, 540, 0.958561, 2.13393e-05, 0.853571, 0.0484906
 15630, 541, 0.957907, 2.2278e-05, 0.891122, 0.0487086
 15660, 542, 0.957224, 2.32547e-05, 0.93019, 0.0489353
 15690, 543, 0.956512, 2.42707e-05, 0.970829, 0.049171
 15720, 544, 0.955768, 2.53273e-05, 1.01309, 0.049416
 15750, 545, 0.954992, 2.64261e-05, 1.05704, 0.0496706
 15780, 546, 0.954182, 2.75683e-05, 1.10273, 0.0499352
 15810, 547, 0.953337, 2.87555e-05, 1.15022, 0.0502102
 15840, 548, 0.952456, 2.99893e-05, 1.19957, 0.0504957
 15870, 549, 0.951537, 3.12712e-05, 1.25085, 0.0507922
 15900, 550, 0.950579, 3.26028e-05, 1.30411, 0.0511001
 15930, 551, 0.94958, 3.39858e-05, 1.35943, 0.0514196
 15960, 552, 0.948539, 3.54217e-05, 1.41687, 0.0517511
 15990, 553, 0.947455, 3.69124e-05, 1.47649, 0.0520952
 16020, 554, 0.946324, 3.84595e-05, 1.53838, 0.0524521
 16050, 555, 0.945146, 4.00647e-05, 1.60259, 0.0528221
 16080, 556, 0.94392, 4.173e-05, 1.6692, 0.0532057
 16110, 557, 0.942642, 4.34571e-05, 1.73828, 0.0536033
 16140, 558, 0.941312, 4.52478e-05, 1.80991, 0.0540154
 16170, 559, 0.939926, 4.71041e-05, 1.88417, 0.0544422
 16200, 560, 0.938485, 4.90278e-05, 1.96111, 0.0548843
 16230, 561, 0.936984, 5.10209e-05, 2.04084, 0.0553419
 16260, 562, 0.935423, 5.30853e-05, 2.12341, 0.0558155
 16290, 563, 0.933798, 5.52228e-05, 2.20891, 0.0563057
 16320, 564, 0.932108, 5.74356e-05, 2.29742, 0.0568127
 16350, 565, 0.930351, 5.97255e-05, 2.38902, 0.057337
 16380, 566, 0.928524, 6.20945e-05, 2.48378, 0.057879
 16410, 567, 0.926625, 6.45446e-05, 2.58179, 0.058439
 16440, 568, 0.924651, 6.70778e-05, 2.68311, 0.0590176
 16470, 569, 0.922599, 6.96959e-05, 2.78784, 0.0596151
 16500, 570, 0.920468, 7.24009e-05, 2.89604, 0.0602318
 16530, 571, 0.918254, 7.51947e-05, 3.00779, 0.0608683
 16560, 572, 0.915955, 7.80792e-05, 3.12317, 0.0615247
 16590, 573, 0.913569, 8.10562e-05, 3.24225, 0.0622015
 16620, 574, 0.911091, 8.41274e-05, 3.3651, 0.0628991
 16650, 575, 0.90852, 8.72946e-05, 3.49179, 0.0636177
 16680, 576, 0.905852, 9.05595e-05, 3.62238, 0.0643577
 16710, 577, 0.903085, 9.39236e-05, 3.75694, 0.0651193
 16740, 578, 0.900216, 9.73883e-05, 3.89553, 0.0659028
 16770, 579, 0.897241, 0.000100955, 4.03821, 0.0667085
 16800, 580, 0.894157, 0.000104625, 4.18502, 0.0675364
 16830, 581, 0.890962, 0.0001084, 4.33601, 0.0683868
 16860, 582, 0.887652, 0.000112281, 4.49122, 0.0692597
 16890, 583, 0.884224, 0.000116267, 4.65069, 0.0701554
 16920, 584, 0.880675, 0.000120361, 4.81444, 0.0710739
 16950, 585, 0.877002, 0.000124563, 4.9825, 0.072015
 16980, 586, 0.8732, 0.000128872, 5.15488, 0.0729787
 17010, 587, 0.869268, 0.000133289, 5.33157, 0.0739648
 17040, 588, 0.865202, 0.000137814, 5.51258, 0.0749734
 17070, 589, 0.860998, 0.000142447, 5.69789, 0.076004
 17100, 590, 0.856654, 0.000147187, 5.88747, 0.0770563
 17130, 591, 0.852166, 0.000152032, 6.08128, 0.07813
 17160, 592, 0.847531, 0.000156982, 6.27927, 0.0792245
 17190, 593, 0.842746, 0.000162035, 6.48138, 0.0803392
 17220, 594, 0.837808, 0.000167188, 6.68752, 0.0814735
 17250, 595, 0.832714, 0.00017244, 6.89761, 0.0826267
 17280, 596, 0.82746, 0.000177788, 7.11151, 0.0837978
 17310, 597, 0.822045, 0.000183228, 7.32912, 0.0849858
 17340, 598, 0.816466, 0.000188757, 7.55027, 0.0861897
 17370, 599, 0.810719, 0.00019437, 7.77481, 0.0874082
 17400, 600, 0.804803, 0.000200063, 8.00254, 0.08864
 17430, 601, 0.798714, 0.000205831, 8.23325, 0.0898834
 17460, 602, 0.792452, 0.000211668, 8.46671, 0.0911371
 17490, 603, 0.786014, 0.000217567, 8.70267, 0.0923991
 17520, 604, 0.779397, 0.000223521, 8.94085, 0.0936674
 17550, 605, 0.772602, 0.000229523, 9.18094, 0.0949401
 17580, 606, 0.765626, 0.000235565, 9.4226, 0.0962149
 17610, 607, 0.758468, 0.000241637, 9.66549, 0.0974895
 17640, 608, 0.751127, 0.00024773, 9.90921, 0.0987609
 17670, 609, 0.743604, 0.000253834, 10.1534, 0.100027
 17700, 610, 0.735897, 0.000259937, 10.3975, 0.101284
 17730, 611, 0.728007, 0.000266028, 10.6411, 0.102529
 17760, 612, 0.719935, 0.000272093, 10.8837, 0.10376
 17790, 613, 0.711682, 0.000278121, 11.1248, 0.104972
 17820, 614, 0.703249, 0.000284096, 11.3639, 0.106161
 17850, 615, 0.694637, 0.000290005, 11.6002, 0.107325
 17880, 616, 0.685849, 0.000295831, 11.8332, 0.108459
 17910, 617, 0.676888, 0.000301558, 12.0623, 0.109559
 17940, 618, 0.667757, 0.000307169, 12.2868, 0.11062
 17970, 619, 0.658459, 0.000312648, 12.5059, 0.111638
 18000, 620, 0.648999, 0.000317975, 12.719, 0.112609
 18030, 621, 0.639382, 0.000323132, 12.9253, 0.113527
 18060, 622, 0.629613, 0.000328099, 13.124, 0.114388
 18090, 623, 0.619698, 0.000332857, 13.3143, 0.115188
 18120, 624, 0.609644, 0.000337386, 13.4954, 0.115919
 18150, 625, 0.599458, 0.000341665, 13.6666, 0.116579
 18180, 626, 0.589147, 0.000345672, 13.8269, 0.117161
 18210, 627, 0.57872, 0.000349388, 13.9755, 0.117661
 18240, 628, 0.568187, 0.000352791, 14.1116, 0.118073
 18270, 629, 0.557556, 0.00035586, 14.2344, 0.118392
 18300, 630, 0.546839, 0.000358574, 14.343, 0.118614
 18330, 631, 0.536045, 0.000360914, 14.4365, 0.118732
 18360, 632, 0.525188, 0.000362858, 14.5143, 0.118743
 18390, 633, 0.514278, 0.000364387, 14.5755, 0.118643
 18420, 634, 0.503329, 0.000365484, 14.6193, 0.118425
 18450, 635, 0.492354, 0.000366129, 14.6452, 0.118087
 18480, 636, 0.481366, 0.000366307, 14.6523, 0.117625
 18510, 637, 0.47038, 0.000366002, 14.6401, 0.117035
 18540, 638, 0.459411, 0.0003652, 14.608, 0.116315
 18570, 639, 0.448473, 0.000363889, 14.5556, 0.115461
 18600, 640, 0.437582, 0.000362059, 14.4824, 0.114472
 18630, 641, 0.426755, 0.000359702, 14.3881, 0.113347
 18660, 642, 0.416006, 0.00035681, 14.2724, 0.112084
 18690, 643, 0.405352, 0.00035338, 14.1352, 0.110682
 18720, 644, 0.394808, 0.000349412, 13.9765, 0.109144
 18750, 645, 0.384392, 0.000344905, 13.7962, 0.107469
 18780, 646, 0.374119, 0.000339865, 13.5946, 0.105659
 18810, 647, 0.364006, 0.000334298, 13.3719, 0.103718
 18840, 648, 0.354067, 0.000328215, 13.1286, 0.101647
 18870, 649, 0.344318, 0.000321627, 12.8651, 0.0994526
 18900, 650, 0.334774, 0.000314553, 12.5821, 0.0971385
 18930, 651, 0.32545, 0.000307011, 12.2804, 0.0947107
 18960, 652, 0.316358, 0.000299024, 11.961, 0.0921758
 18990, 653, 0.307512, 0.000290617, 11.6247, 0.0895413
 19020, 654, 0.298925, 0.000281819, 11.2728, 0.0868151
 19050, 655, 0.290607, 0.000272661, 10.9065, 0.0840065
 19080, 656, 0.282569, 0.000263179, 10.5272, 0.0811244
 19110, 657, 0.274819, 0.000253408, 10.1363, 0.0781796
 19140, 658, 0.267367, 0.000243387, 9.73549, 0.0751823
 19170, 659, 0.260218, 0.000233158, 9.32633, 0.0721439
 19200, 660, 0.253379, 0.000222764, 8.91056, 0.0690759
 19230, 661, 0.246854, 0.000212248, 8.48992, 0.0659904
 19260, 662, 0.240645, 0.000201656, 8.06623, 0.0628991
 19290, 663, 0.234755, 0.000191033, 7.64131, 0.0598145
 19320, 664, 0.229183, 0.000180425, 7.21699, 0.0567487
 19350, 665, 0.223929, 0.000169878, 6.7951, 0.0537135
 19380, 666, 0.218989, 0.000159436, 6.37743, 0.0507206
 19410, 667, 0.214361, 0.000149143, 5.96572, 0.0477816
 19440, 668, 0.210039, 0.000139041, 5.56165, 0.0449074
 19470, 669, 0.206016, 0.00012917, 5.16681, 0.0421081
 19500, 670, 0.202286, 0.000119568, 4.78272, 0.0393933
 19530, 671, 0.198839, 0.000110268, 4.41074, 0.0367718
 19560, 672, 0.195667, 0.000101303, 4.05213, 0.0342516
 19590, 673, 0.192758, 9.27004e-05, 3.70802, 0.0318394
 19620, 674, 0.190101, 8.44837e-05, 3.37935, 0.029541
 19650, 675, 0.187685, 7.66733e-05, 3.06693, 0.0273615
 19680, 676, 0.185496, 6.92853e-05, 2.77141, 0.0253041
 19710, 677, 0.183523, 6.23314e-05, 2.49325, 0.0233716
 19740, 678, 0.181752, 5.58191e-05, 2.23277, 0.0215657
 19770, 679, 0.18017, 4.9752e-05, 1.99008, 0.0198861
 19800, 680, 0.178763, 4.41294e-05, 1.76518, 0.0183324
 19830, 681, 0.177518, 3.89468e-05, 1.55787, 0.0169026
 19860, 682, 0.176422, 3.41962e-05, 1.36785, 0.0155941
 19890, 683, 0.175462, 2.98661e-05, 1.19464, 0.0144032
 19920, 684, 0.174626, 2.59422e-05, 1.03769, 0.0133258
 19950, 685, 0.173901, 2.24073e-05, 0.896293, 0.0123563
 19980, 686, 0.173278, 1.92423e-05, 0.769692, 0.0114894
 20010, 687, 0.172743, 1.64261e-05, 0.657043, 0.0107191
 20040, 688, 0.172289, 1.39361e-05, 0.557446, 0.0100389
 20070, 689, 0.171904, 1.17491e-05, 0.469965, 0.00944198
 20100, 690, 0.171581, 9.84106e-06, 0.393642, 0.00892202
 20130, 691, 0.171311, 8.18782e-06, 0.327513, 0.00847169
 20160, 692, 0.171087, 6.76549e-06, 0.27062, 0.0080847
 20190, 693, 0.170903, 5.5507e-06, 0.222028, 0.00775465
 20220, 694, 0.170753, 4.52088e-06, 0.180835, 0.00747499
 20250, 695, 0.17063, 3.65454e-06, 0.146182, 0.00723985
 20280, 696, 0.170532, 2.93145e-06, 0.117258, 0.00704397
 20310, 697, 0.170453, 2.33278e-06, 0.0933112, 0.00688175
 20340, 698, 0.170391, 1.84122e-06, 0.073649, 0.00674877
 20370, 699, 0.170342, 1.44105e-06, 0.0576419, 0.00664067
 20400, 700, 0.170304, 1.1181e-06, 0.0447242, 0.00655337
 20430, 701, 0.170274, 8.59827e-07, 0.0343931, 0.00648361
 20460, 702, 0.170252, 6.55167e-07, 0.0262067, 0.00642841
 20490, 703, 0.170234, 4.94528e-07, 0.0197811, 0.006385
 20520, 704, 0.170221, 3.69667e-07, 0.0147867, 0.00635144
 20550, 705, 0.170212, 2.73584e-07, 0.0109434, 0.0063255
 20580, 706, 0.170205, 2.00404e-07, 0.00801615, 0.00630578
 20610, 707, 0.1702, 1.45254e-07, 0.00581018, 0.00629104
 20640, 708, 0.170196, 1.04143e-07, 0.00416573, 0.00627992
 20670, 709, 0.170193, 7.38375e-08, 0.0029535, 0.00627185
 20700, 710, 0.170191, 5.17522e-08, 0.00207009, 0.00626591
 20730, 711, 0.17019, 3.58464e-08, 0.00143386, 0.00626159
 20760, 712, 0.170189, 2.45292e-08, 0.000981166, 0.00625854
 20790, 713, 0.170189, 1.65764e-08, 0.000663057, 0.00625645
 20820, 714, 0.170188, 1.1059e-08, 0.000442362, 0.00625484
 20850, 715, 0.170188, 7.28126e-09, 0.00029125, 0.00625395
 20880, 716, 0.170188, 4.7293e-09, 0.000189172, 0.00625318
 20910, 717, 0.170188, 3.02917e-09, 0.000121167, 0.00625276
 20940, 718, 0.170188, 1.91257e-09, 7.65027e-05, 0.00625237
 20970, 719, 0.170188, 1.18988e-09, 4.75953e-05, 0.00625225
 21000, 720, 0.170188, 7.29134e-10, 2.91654e-05, 0.00625207
 21030, 721, 0.170188, 4.3989e-10, 1.75956e-05, 0.0062521
 21060, 722, 0.170188, 2.61172e-10, 1.04469e-05, 0.00625198
 21090, 723, 0.170187, 1.52532e-10, 6.10129e-06, 0.00625205
 21120, 724, 0.170187, 8.75899e-11, 3.5036e-06, 0.00625196
 21150, 725, 0.170187, 4.94312e-11, 1.97725e-06, 0.0062519
 21180, 726, 0.170187, 2.74029e-11, 1.09611e-06, 0.00625195
 21210, 727, 0.170187, 1.49151e-11, 5.96603e-07, 0.00625196
 21240, 728, 0.170187, 7.96658e-12, 3.18663e-07, 0.00625197
 21270, 729, 0.170187, 4.17362e-12, 1.66945e-07, 0.00625205
 21300, 730, 0.170187, 2.14347e-12, 8.57389e-08, 0.00625193
 21330, 731, 0.170187, 1.07858e-12, 4.31433e-08, 0.00625197
 21360, 732, 0.170187, 5.31469e-13, 2.12588e-08, 0.00625193
 21390, 733, 0.170187, 2.56298e-13, 1.02519e-08, 0.00625197
 21420, 734, 0.170187, 1.20893e-13, 4.83574e-09, 0.00625197
 21450, 735, 0.170187, 5.5743e-14, 2.22972e-09, 0.00625202
 21480, 736, 0.170187, 2.51098e-14, 1.00439e-09, 0.00625183
 21510, 737, 0.170187, 1.1043e-14, 4.41721e-10, 0.006252
 21540, 738, 0.170187, 4.73857e-15, 1.89543e-10, 0.00625196
 21570, 739, 0.170187, 1.98259e-15, 7.93038e-11, 0.00625189
 21600, 740, 0.170187, 8.08268e-16, 3.23307e-11, 0.00625199
 21630, 741, 0.170187, 3.20857e-16, 1.28343e-11, 0.00625189
 21660, 742, 0.170187, 1.23935e-16, 4.9574e-12, 0.00625198
 21690, 743, 0.170187, 4.65466e-17, 1.86186e-12, 0.00625194
 21720, 744, 0.170187, 1.69852e-17, 6.79409e-13, 0.00625195
 21750, 745, 0.170187, 6.01745e-18, 2.40698e-13, 0.00625201
 21780, 746, 0.170187, 2.06811e-18, 8.27243e-14, 0.00625194
 21810, 747, 0.170187, 6.88979e-19, 2.75592e-14, 0.00625192
 21840, 748, 0.170187, 2.22308e-19, 8.89232e-15, 0.00625201
 21870, 749, 0.170187, 6.94156e-20, 2.77662e-15, 0.00625197
 21900, 750, 0.170187, 2.09574e-20, 8.38297e-16, 0.00625192
 21930, 751, 0.170187, 6.11247e-21, 2.44499e-16, 0.00625195
 21960, 752, 0.170187, 1.72069e-21, 6.88276e-17, 0.00625195
 21990, 753, 0.170187, 4.67083e-22, 1.86833e-17, 0.00625195
 22020, 754, 0.170187, 1.22146e-22, 4.88586e-18, 0.00625195
 22050, 755, 0.170187, 3.07428e-23, 1.22971e-18, 0.00625192
 22080, 756, 0.170187, 7.43964e-24, 2.97586e-19, 0.00625186
 22110, 757, 0.170187, 1.72928e-24, 6.91714e-20, 0.00625191
 22140, 758, 0.170187, 3.85688e-25, 1.54275e-20, 0.00625192
 22170, 759, 0.170187, 8.24515e-26, 3.29806e-21, 0.00625205
 22200, 760, 0.170187, 1.68765e-26, 6.7506e-22, 0.00625196
 22230, 761, 0.170187, 3.30372e-27, 1.32149e-22, 0.00625189
 22260, 762, 0.170187, 6.17829e-28, 2.47132e-23, 0.00625203
 22290, 763, 0.170187, 1.10248e-28, 4.4099e-24, 0.00625202
 22320, 764, 0.170187, 1.87494e-29, 7.49976e-25, 0.00625186
 22350, 765, 0.170187, 3.03524e-30, 1.2141e-25, 0.00625185
 22380, 766, 0.170187, 4.67137e-31, 1.86855e-26, 0.00625194
 22410, 767, 0.170187, 6.82626e-32, 2.7305e-27, 0.00625201
 22440, 768, 0.170187, 9.45893e-33, 3.78357e-28, 0.006252
 22470, 769, 0.170187, 1.24119e-33, 4.96477e-29, 0.0062519
 22500, 770, 0.170187, 1.54021e-34, 6.16084e-30, 0.00625207
 22530, 771, 0.170187, 1.80491e-35, 7.21962e-31, 0.00625181
 22560, 772, 0.170187, 1.99453e-36, 7.97811e-32, 0.00625203
 22590, 773, 0.170187, 2.07539e-37, 8.30154e-33, 0.00625176
 22620, 774, 0.170187, 2.03039e-38, 8.12155e-34, 0.00625204
 22650, 775, 0.170187, 0.0000000E+000, 7.45887e-35, 0.00625195
 22680, 776, 0.170187, 0.0000000E+000, 6.42065e-36, 0.00625192
 22710, 777, 0.170187, 0.0000000E+000, 5.172e-37, 0.0062519
 22740, 778, 0.170187, 0.0000000E+000, 3.89223e-38, 0.0062518
 22770, 779, 0.170187, 0.0000000E+000, 0.0000000E+000, 0.0062519
 22800, 780, 0.170187, 0.0000000E+000, 0.0000000E+000, 0.00625189
 22830, 781, 0.170187, 0.0000000E+000, 0.0000000E+000, 0.0062519
 22860, 782, 0.170187, 0.0000000E+000, 0.0000000E+000, 0.00625199
 22890, 783, 0.170187, 0.0000000E+000, 0.0000000E+000, 0.00625198
 22920, 784, 0.170187, 0.0000000E+000, 0.0000000E+000, 0.00625186
 22950, 785, 0.170187, 0.0000000E+000, 0.0000000E+000, 0.00625196
 22980, 786, 0.170187, 0.0000000E+000, 0.0000000E+000, 0.00625192
 23010, 787, 0.170187, 0.0000000E+000, 0.0000000E+000, 0.00625194
 23040, 788, 0.170187, 0.0000000E+000, 0.0000000E+000, 0.00625196
 23070, 789, 0.170187, 0.0000000E+000, 0.0000000E+000, 0.00625203
 23100, 790, 0.170187, 0.0000000E+000, 0.0000000E+000, 0.00625187
 23130, 791, 0.170187, 0.0000000E+000, 0.0000000E+000, 0.00625194
 23160, 792, 0.170187, 0.0000000E+000, 0.0000000E+000, 0.00625193
 23190, 793, 0.170187, 0.0000000E+000, 0.0000000E+000, 0.00625184
 23220, 794, 0.170187, 0.0000000E+000, 0.0000000E+000, 0.00625193
 23250, 795, 0.170187, 0.0000000E+000, 0.0000000E+000, 0.00625201
 23280, 796, 0.170187, 0.0000000E+000, 0.0000000E+000, 0.00625191
 23310, 797, 0.170187, 0.0000000E+000, 0.0000000E+000, 0.00625203
 23340, 798, 0.170187, 0.0000000E+000, 0.0000000E+000, 0.00625194
 23370, 799, 0.170187, 0.0000000E+000, 0.0000000E+000, 0.00625196
 23400, 800, 0.170187, 0.0000000E+000, 0.0000000E+000, 0.00625191