File: examples/Birch_TGA_Example/Work/Cone_2abpo9o1/birch_tga_1step_20_tga.csv
s,C,g/g,1/s,W/g,W/g
Time,Temp,Mass,MLR,MCC,DSC
 3, 21.0014, 0.999999, 2.18432e-07, 3.74913e-28, 0.459601
 6, 22.0014, 0.999999, 2.50874e-07, 5.2391e-28, 0.459673
 9, 23.0014, 0.999998, 2.87863e-07, 7.30468e-28, 0.459756
 12, 24.0014, 0.999997, 3.29998e-07, 1.01619e-27, 0.45985
 15, 25.0014, 0.999996, 3.77948e-07, 1.41054e-27, 0.459957
 18, 26.0014, 0.999995, 4.32468e-07, 1.95365e-27, 0.460078
 21, 27.0014, 0.999993, 4.94401e-07, 2.69999e-27, 0.460217
 24, 28.0014, 0.999992, 5.64693e-07, 3.72346e-27, 0.460373
 27, 29.0014, 0.99999, 6.44398e-07, 5.12397e-27, 0.460551
 30, 30.0014, 0.999988, 7.34698e-07, 7.03642e-27, 0.460753
 33, 31.0014, 0.999985, 8.36909e-07, 9.64252e-27, 0.460981
 36, 32.0014, 0.999983, 9.52499e-07, 1.31866e-26, 0.461239
 39, 33.0014, 0.99998, 1.08311e-06, 1.79965e-26, 0.46153
 42, 34.0014, 0.999976, 1.23055e-06, 2.45111e-26, 0.461859
 45, 35.0014, 0.999972, 1.39685e-06, 3.3317e-26, 0.46223
 48, 36.0014, 0.999968, 1.58425e-06, 4.51968e-26, 0.462648
 51, 37.0014, 0.999963, 1.79525e-06, 6.11921e-26, 0.463118
 54, 38.0014, 0.999957, 2.0326e-06, 8.26869e-26, 0.463647
 57, 39.0014, 0.999951, 2.29936e-06, 1.11517e-25, 0.464242
 60, 40.0014, 0.999943, 2.59888e-06, 1.50112e-25, 0.464909
 63, 41.0014, 0.999935, 2.9349e-06, 2.01682e-25, 0.465658
 66, 42.0014, 0.999926, 3.31151e-06, 2.70462e-25, 0.466497
 69, 43.0014, 0.999915, 3.73321e-06, 3.62025e-25, 0.467437
 72, 44.0014, 0.999903, 4.20496e-06, 4.83696e-25, 0.468488
 75, 45.0014, 0.99989, 4.73217e-06, 6.45083e-25, 0.469663
 78, 46.0014, 0.999875, 5.32078e-06, 8.58766e-25, 0.470974
 81, 47.0014, 0.999858, 5.97727e-06, 1.14119e-24, 0.472436
 84, 48.0014, 0.999839, 6.70869e-06, 1.51381e-24, 0.474064
 87, 49.0014, 0.999817, 7.52271e-06, 2.00458e-24, 0.475877
 90, 50.0014, 0.999793, 8.42766e-06, 2.64985e-24, 0.477891
 93, 51.0014, 0.999767, 9.43249e-06, 3.4968e-24, 0.480128
 96, 52.0014, 0.999737, 1.05469e-05, 4.60659e-24, 0.482608
 99, 53.0014, 0.999703, 1.17812e-05, 6.05834e-24, 0.485355
 102, 54.0014, 0.999666, 1.31466e-05, 7.95428e-24, 0.488392
 105, 55.0014, 0.999624, 1.46548e-05, 1.04262e-23, 0.491747
 108, 56.0014, 0.999578, 1.63183e-05, 1.36439e-23, 0.495447
 111, 57.0014, 0.999526, 1.81502e-05, 1.78256e-23, 0.499521
 114, 58.0014, 0.999469, 2.01641e-05, 2.32513e-23, 0.503998
 117, 59.0014, 0.999405, 2.23743e-05, 3.028e-23, 0.508911
 120, 60.0014, 0.999334, 2.47951e-05, 3.93709e-23, 0.51429
 123, 61.0014, 0.999256, 2.74414e-05, 5.11108e-23, 0.520169
 126, 62.0014, 0.999169, 3.03275e-05, 6.62482e-23, 0.52658
 129, 63.0014, 0.999074, 3.34679e-05, 8.57362e-23, 0.533553
 132, 64.0014, 0.998968, 3.68759e-05, 1.10787e-22, 0.541118
 135, 65.0014, 0.998852, 4.05641e-05, 1.42942e-22, 0.549302
 138, 66.0014, 0.998725, 4.45431e-05, 1.84151e-22, 0.558128
 141, 67.0014, 0.998585, 4.88213e-05, 2.36887e-22, 0.567614
 144, 68.0014, 0.998431, 5.34044e-05, 3.04277e-22, 0.577771
 147, 69.0013, 0.998264, 5.82939e-05, 3.90265e-22, 0.588602
 150, 70.0013, 0.998081, 6.34867e-05, 4.99829e-22, 0.600098
 153, 71.0013, 0.997882, 6.89739e-05, 6.39231e-22, 0.612238
 156, 72.0013, 0.997667, 7.47397e-05, 8.16349e-22, 0.624984
 159, 73.0013, 0.997434, 8.076e-05, 1.04107e-21, 0.638281
 162, 74.0013, 0.997182, 8.70013e-05, 1.32579e-21, 0.652053
 165, 75.0013, 0.996911, 9.34192e-05, 1.68604e-21, 0.666197
 168, 76.0013, 0.996621, 9.99575e-05, 2.14122e-21, 0.680587
 171, 77.0013, 0.996312, 0.000106547, 2.71558e-21, 0.695064
 174, 78.0013, 0.995982, 0.000113103, 3.43935e-21, 0.709438
 177, 79.0013, 0.995633, 0.000119529, 4.35019e-21, 0.72349
 180, 80.0013, 0.995265, 0.000125711, 5.49492e-21, 0.736963
 183, 81.0013, 0.994879, 0.000131523, 6.93172e-21, 0.749574
 186, 82.0012, 0.994476, 0.000136825, 8.7328e-21, 0.761007
 189, 83.0012, 0.994059, 0.000141469, 1.09876e-20, 0.770929
 192, 84.0012, 0.993628, 0.000145297, 1.38068e-20, 0.778987
 195, 85.0012, 0.993188, 0.000148153, 1.73273e-20, 0.784831
 198, 86.0012, 0.992741, 0.000149884, 2.17179e-20, 0.788117
 201, 87.0012, 0.99229, 0.000150348, 2.71869e-20, 0.788532
 204, 88.0012, 0.99184, 0.000149424, 3.39909e-20, 0.785809
 207, 89.0012, 0.991395, 0.000147023, 4.24454e-20, 0.779748
 210, 90.0012, 0.990959, 0.000143092, 5.29379e-20, 0.770241
 213, 91.0013, 0.990538, 0.00013763, 6.59442e-20, 0.757287
 216, 92.0013, 0.990135, 0.000130688, 8.20472e-20, 0.741012
 219, 93.0013, 0.989755, 0.000122381, 1.01961e-19, 0.72168
 222, 94.0013, 0.989402, 0.000112885, 1.26558e-19, 0.699693
 225, 95.0013, 0.989079, 0.000102434, 1.56904e-19, 0.67559
 228, 96.0013, 0.988788, 9.13137e-05, 1.943e-19, 0.65002
 231, 97.0013, 0.988531, 7.98486e-05, 2.40332e-19, 0.623717
 234, 98.0013, 0.988309, 6.8381e-05, 2.96928e-19, 0.597458
 237, 99.0014, 0.988121, 5.7251e-05, 3.66436e-19, 0.572012
 240, 100.001, 0.987965, 4.67726e-05, 4.51706e-19, 0.548086
 243, 101.001, 0.98784, 3.72118e-05, 5.56195e-19, 0.526279
 246, 102.001, 0.987741, 2.87671e-05, 6.84095e-19, 0.507037
 249, 103.001, 0.987666, 2.15582e-05, 8.40481e-19, 0.490623
 252, 104.001, 0.98761, 1.56215e-05, 1.03149e-18, 0.477116
 255, 105.001, 0.987571, 1.09153e-05, 1.26454e-18, 0.466416
 258, 106.001, 0.987544, 7.33278e-06, 1.54857e-18, 0.458275
 261, 107.001, 0.987526, 4.72103e-06, 1.89439e-18, 0.452343
 264, 108.001, 0.987515, 2.90306e-06, 2.31497e-18, 0.448216
 267, 109.001, 0.987508, 1.69873e-06, 2.82597e-18, 0.445483
 270, 110.001, 0.987504, 9.42158e-07, 3.44617e-18, 0.443767
 273, 111.001, 0.987502, 4.9318e-07, 4.19814e-18, 0.442749
 276, 112.001, 0.987501, 2.4254e-07, 5.10896e-18, 0.44218
 279, 113.001, 0.9875, 1.11512e-07, 6.21107e-18, 0.441883
 282, 114.001, 0.9875, 4.76801e-08, 7.54331e-18, 0.441739
 285, 115.001, 0.9875, 1.88524e-08, 9.15214e-18, 0.441674
 288, 116.001, 0.9875, 6.85133e-09, 1.10931e-17, 0.441646
 291, 117.001, 0.9875, 2.27371e-09, 1.34324e-17, 0.441636
 294, 118.001, 0.9875, 6.84247e-10, 1.62491e-17, 0.441632
 297, 119.001, 0.9875, 1.85337e-10, 1.96374e-17, 0.441631
 300, 120.001, 0.9875, 4.4823e-11, 2.37093e-17, 0.441631
 303, 121.001, 0.9875, 9.59621e-12, 2.85983e-17, 0.441631
 306, 122.001, 0.9875, 1.80205e-12, 3.44626e-17, 0.441631
 309, 123.001, 0.9875, 2.93922e-13, 4.14904e-17, 0.441631
 312, 124.001, 0.9875, 4.12021e-14, 4.99047e-17, 0.441631
 315, 125.001, 0.9875, 4.90839e-15, 5.99698e-17, 0.441631
 318, 126.001, 0.9875, 4.90977e-16, 7.19986e-17, 0.441631
 321, 127.001, 0.9875, 4.07109e-17, 8.63611e-17, 0.441631
 324, 128.001, 0.9875, 2.7622e-18, 1.03495e-16, 0.441631
 327, 129.001, 0.9875, 1.5381e-19, 1.23916e-16, 0.441631
 330, 130.001, 0.9875, 1.02337e-20, 1.48235e-16, 0.441631
 333, 131.001, 0.9875, 4.64971e-21, 1.77168e-16, 0.441631
 336, 132.001, 0.9875, 5.29479e-21, 2.11563e-16, 0.441631
 339, 133.001, 0.9875, 6.31048e-21, 2.52415e-16, 0.441631
 342, 134.001, 0.9875, 7.52234e-21, 3.00894e-16, 0.441631
 345, 135.001, 0.9875, 8.95936e-21, 3.58375e-16, 0.441631
 348, 136.001, 0.9875, 1.06618e-20, 4.26472e-16, 0.441631
 351, 137.001, 0.9875, 1.2677e-20, 5.07078e-16, 0.441631
 354, 138.001, 0.9875, 1.50603e-20, 6.02412e-16, 0.441631
 357, 139.001, 0.9875, 1.78768e-20, 7.15072e-16, 0.441631
 360, 140.001, 0.9875, 2.12024e-20, 8.48096e-16, 0.441631
 363, 141.001, 0.9875, 2.5126e-20, 1.00504e-15, 0.441631
 366, 142.001, 0.9875, 2.97512e-20, 1.19005e-15, 0.441631
 369, 143.001, 0.9875, 3.51994e-20, 1.40797e-15, 0.441631
 372, 144.001, 0.9875, 4.16116e-20, 1.66446e-15, 0.441631
 375, 145.001, 0.9875, 4.91526e-20, 1.9661e-15, 0.441631
 378, 146.001, 0.9875, 5.8014e-20, 2.32056e-15, 0.441631
 381, 147.001, 0.9875, 6.84191e-20, 2.73676e-15, 0.441631
 384, 148.001, 0.9875, 8.06271e-20, 3.22509e-15, 0.441631
 387, 149.001, 0.9875, 9.49396e-20, 3.79758e-15, 0.441631
 390, 150.001, 0.9875, 1.11706e-19, 4.46825e-15, 0.441631
 393, 151.001, 0.9875, 1.31333e-19, 5.25334e-15, 0.441631
 396, 152.001, 0.9875, 1.54292e-19, 6.17167e-15, 0.441631
 399, 153.001, 0.9875, 1.81126e-19, 7.24504e-15, 0.441631
 402, 154.001, 0.9875, 2.12468e-19, 8.49872e-15, 0.441631
 405, 155.001, 0.9875, 2.49047e-19, 9.9619e-15, 0.441631
 408, 156.001, 0.9875, 2.91709e-19, 1.16683e-14, 0.441631
 411, 157.001, 0.9875, 3.41427e-19, 1.36571e-14, 0.441631
 414, 158.001, 0.9875, 3.99327e-19, 1.59731e-14, 0.441631
 417, 159.001, 0.9875, 4.66707e-19, 1.86683e-14, 0.441631
 420, 160.001, 0.9875, 5.45064e-19, 2.18026e-14, 0.441631
 423, 161.001, 0.9875, 6.36122e-19, 2.54449e-14, 0.441631
 426, 162.001, 0.9875, 7.41865e-19, 2.96746e-14, 0.441631
 429, 163.001, 0.9875, 8.64576e-19, 3.4583e-14, 0.441631
 432, 164.001, 0.9875, 1.00688e-18, 4.02751e-14, 0.441631
 435, 165.001, 0.9875, 1.17179e-18, 4.68715e-14, 0.441631
 438, 166.001, 0.9875, 1.36277e-18, 5.45106e-14, 0.441631
 441, 167.001, 0.9875, 1.58378e-18, 6.33513e-14, 0.441631
 444, 168.001, 0.9875, 1.83939e-18, 7.35755e-14, 0.441631
 447, 169.001, 0.9875, 2.1348e-18, 8.53921e-14, 0.441631
 450, 170.001, 0.9875, 2.476e-18, 9.90398e-14, 0.441631
 453, 171.001, 0.9875, 2.8698e-18, 1.14792e-13, 0.441631
 456, 172.001, 0.9875, 3.32404e-18, 1.32962e-13, 0.441631
 459, 173.001, 0.9875, 3.84764e-18, 1.53906e-13, 0.441631
 462, 174.001, 0.9875, 4.45081e-18, 1.78032e-13, 0.441631
 465, 175.001, 0.9875, 5.14518e-18, 2.05807e-13, 0.441631
 468, 176.001, 0.9875, 5.94405e-18, 2.37762e-13, 0.441631
 471, 177.001, 0.9875, 6.86255e-18, 2.74502e-13, 0.441631
 474, 178.001, 0.9875, 7.91793e-18, 3.16717e-13, 0.441631
 477, 179.001, 0.9875, 9.12984e-18, 3.65194e-13, 0.441631
 480, 180.001, 0.9875, 1.05206e-17, 4.20825e-13, 0.441631
 483, 181.001, 0.9875, 1.21157e-17, 4.84629e-13, 0.441631
 486, 182.001, 0.9875, 1.3944e-17, 5.5776e-13, 0.441631
 489, 183.001, 0.9875, 1.60383e-17, 6.41531e-13, 0.441631
 492, 184.001, 0.9875, 1.84358e-17, 7.37432e-13, 0.441631
 495, 185.001, 0.9875, 2.11789e-17, 8.47154e-13, 0.441631
 498, 186.001, 0.9875, 2.43153e-17, 9.72614e-13, 0.441631
 501, 187.001, 0.9875, 2.78996e-17, 1.11598e-12, 0.441631
 504, 188.001, 0.9875, 3.19931e-17, 1.27972e-12, 0.441631
 507, 189.001, 0.9875, 3.66654e-17, 1.46662e-12, 0.441631
 510, 190.001, 0.9875, 4.19954e-17, 1.67982e-12, 0.441631
 513, 191.001, 0.9875, 4.80722e-17, 1.92289e-12, 0.441631
 516, 192.001, 0.9875, 5.49962e-17, 2.19985e-12, 0.441631
 519, 193.001, 0.9875, 6.28812e-17, 2.51525e-12, 0.441631
 522, 194.001, 0.9875, 7.18555e-17, 2.87422e-12, 0.441631
 525, 195.001, 0.9875, 8.20638e-17, 3.28255e-12, 0.441631
 528, 196.001, 0.9875, 9.36693e-17, 3.74677e-12, 0.441631
 531, 197.001, 0.9875, 1.06856e-16, 4.27424e-12, 0.441631
 534, 198.001, 0.9875, 1.21831e-16, 4.87323e-12, 0.441631
 537, 199.001, 0.9875, 1.38827e-16, 5.55308e-12, 0.441631
 540, 200.001, 0.9875, 1.58107e-16, 6.32429e-12, 0.441631
 543, 201.001, 0.9875, 1.79966e-16, 7.19865e-12, 0.441631
 546, 202.001, 0.9875, 2.04736e-16, 8.18942e-12, 0.441631
 549, 203.001, 0.9875, 2.32788e-16, 9.31152e-12, 0.441631
 552, 204.001, 0.9875, 2.64542e-16, 1.05817e-11, 0.441631
 555, 205.001, 0.9875, 3.00466e-16, 1.20186e-11, 0.441631
 558, 206.001, 0.9875, 3.41088e-16, 1.36435e-11, 0.441631
 561, 207.001, 0.9875, 3.86996e-16, 1.54799e-11, 0.441631
 564, 208.001, 0.9875, 4.38854e-16, 1.75542e-11, 0.441631
 567, 209.001, 0.9875, 4.97401e-16, 1.9896e-11, 0.441631
 570, 210.001, 0.9875, 5.63466e-16, 2.25386e-11, 0.441631
 573, 211.001, 0.9875, 6.37978e-16, 2.55191e-11, 0.441631
 576, 212.001, 0.9875, 7.21973e-16, 2.88789e-11, 0.441631
 579, 213.001, 0.9875, 8.16611e-16, 3.26644e-11, 0.441631
 582, 214.001, 0.9875, 9.23187e-16, 3.69275e-11, 0.441631
 585, 215.001, 0.9875, 1.04315e-15, 4.17259e-11, 0.441631
 588, 216.001, 0.9875, 1.17811e-15, 4.71244e-11, 0.441631
 591, 217.001, 0.9875, 1.32987e-15, 5.31948e-11, 0.441631
 594, 218.001, 0.9875, 1.50044e-15, 6.00177e-11, 0.441631
 597, 219.001, 0.9875, 1.69206e-15, 6.76824e-11, 0.441631
 600, 220.001, 0.9875, 1.90722e-15, 7.62888e-11, 0.441631
 603, 221.001, 0.9875, 2.1487e-15, 8.59479e-11, 0.441631
 606, 222.001, 0.9875, 2.41958e-15, 9.67833e-11, 0.441631
 609, 223.001, 0.9875, 2.72332e-15, 1.08933e-10, 0.441631
 612, 224.001, 0.9875, 3.06372e-15, 1.22549e-10, 0.441631
 615, 225.001, 0.9875, 3.44504e-15, 1.37802e-10, 0.441631
 618, 226.001, 0.9875, 3.872e-15, 1.5488e-10, 0.441631
 621, 227.001, 0.9875, 4.34985e-15, 1.73994e-10, 0.441631
 624, 228.001, 0.9875, 4.8844e-15, 1.95376e-10, 0.441631
 627, 229.001, 0.9875, 5.48211e-15, 2.19284e-10, 0.441631
 630, 230.001, 0.9875, 6.15013e-15, 2.46005e-10, 0.441631
 633, 231.001, 0.9875, 6.89642e-15, 2.75857e-10, 0.441631
 636, 232.001, 0.9875, 7.72975e-15, 3.0919e-10, 0.441631
 639, 233.001, 0.9875, 8.65988e-15, 3.46395e-10, 0.441631
 642, 234.001, 0.9875, 9.69758e-15, 3.87903e-10, 0.441631
 645, 235.001, 0.9875, 1.08548e-14, 4.34192e-10, 0.441631
 648, 236.001, 0.9875, 1.21447e-14, 4.85789e-10, 0.441631
 651, 237.001, 0.9875, 1.3582e-14, 5.43278e-10, 0.441631
 654, 238.001, 0.9875, 1.51826e-14, 6.07305e-10, 0.441631
 657, 239.001, 0.9875, 1.69646e-14, 6.78582e-10, 0.441631
 660, 240.001, 0.9875, 1.89474e-14, 7.57897e-10, 0.441631
 663, 241.001, 0.9875, 2.1153e-14, 8.46119e-10, 0.441631
 666, 242.001, 0.9875, 2.36052e-14, 9.44206e-10, 0.441631
 669, 243.001, 0.9875, 2.63304e-14, 1.05322e-09, 0.441631
 672, 244.001, 0.9875, 2.93579e-14, 1.17432e-09, 0.441631
 675, 245.001, 0.9875, 3.27198e-14, 1.30879e-09, 0.441631
 678, 246.001, 0.9875, 3.64513e-14, 1.45805e-09, 0.441631
 681, 247.001, 0.9875, 4.05916e-14, 1.62367e-09, 0.441631
 684, 248.001, 0.9875, 4.51836e-14, 1.80734e-09, 0.441631
 687, 249.001, 0.9875, 5.02743e-14, 2.01097e-09, 0.441631
 690, 250.001, 0.9875, 5.59158e-14, 2.23663e-09, 0.441631
 693, 251.001, 0.9875, 6.21651e-14, 2.4866e-09, 0.441631
 696, 252.001, 0.9875, 6.90849e-14, 2.7634e-09, 0.441631
 699, 253.001, 0.9875, 7.67443e-14, 3.06977e-09, 0.441631
 702, 254.001, 0.9875, 8.52188e-14, 3.40875e-09, 0.441631
 705, 255.001, 0.9875, 9.45916e-14, 3.78366e-09, 0.441631
 708, 256.001, 0.9875, 1.04954e-13, 4.19815e-09, 0.441631
 711, 257.001, 0.9875, 1.16406e-13, 4.65622e-09, 0.441631
 714, 258.001, 0.9875, 1.29057e-13, 5.16226e-09, 0.441631
 717, 259.001, 0.9875, 1.43027e-13, 5.72107e-09, 0.441631
 720, 260.001, 0.9875, 1.58448e-13, 6.33794e-09, 0.441631
 723, 261.001, 0.9875, 1.75465e-13, 7.01862e-09, 0.441631
 726, 262.001, 0.9875, 1.94236e-13, 7.76944e-09, 0.441631
 729, 263.001, 0.9875, 2.14933e-13, 8.59733e-09, 0.441631
 732, 264.001, 0.9875, 2.37746e-13, 9.50984e-09, 0.441631
 735, 265.001, 0.9875, 2.62882e-13, 1.05153e-08, 0.441631
 738, 266.001, 0.9875, 2.90566e-13, 1.16227e-08, 0.441631
 741, 267.001, 0.9875, 3.21048e-13, 1.28419e-08, 0.441631
 744, 268.001, 0.9875, 3.54596e-13, 1.41838e-08, 0.441631
 747, 269.001, 0.9875, 3.91506e-13, 1.56602e-08, 0.441631
 750, 270.001, 0.9875, 4.321e-13, 1.7284e-08, 0.441631
 753, 271.001, 0.9875, 4.76731e-13, 1.90693e-08, 0.441631
 756, 272.001, 0.9875, 5.25782e-13, 2.10313e-08, 0.441631
 759, 273.001, 0.9875, 5.79672e-13, 2.31869e-08, 0.441631
 762, 274.001, 0.9875, 6.38858e-13, 2.55543e-08, 0.441631
 765, 275.001, 0.9875, 7.03836e-13, 2.81535e-08, 0.441631
 768, 276.001, 0.9875, 7.75151e-13, 3.1006e-08, 0.441631
 771, 277.001, 0.9875, 8.53391e-13, 3.41356e-08, 0.441631
 774, 278.001, 0.9875, 9.39201e-13, 3.7568e-08, 0.441631
 777, 279.001, 0.9875, 1.03328e-12, 4.13312e-08, 0.441631
 780, 280.001, 0.9875, 1.13639e-12, 4.54557e-08, 0.441631
 783, 281.001, 0.9875, 1.24936e-12, 4.99746e-08, 0.441631
 786, 282.001, 0.9875, 1.3731e-12, 5.49239e-08, 0.441631
 789, 283.001, 0.9875, 1.50857e-12, 6.03429e-08, 0.441631
 792, 284.001, 0.9875, 1.65686e-12, 6.62742e-08, 0.441631
 795, 285.001, 0.9875, 1.8191e-12, 7.27641e-08, 0.441631
 798, 286.001, 0.9875, 1.99657e-12, 7.98627e-08, 0.441631
 801, 287.001, 0.9875, 2.19062e-12, 8.76248e-08, 0.441631
 804, 288.001, 0.9875, 2.40274e-12, 9.61095e-08, 0.441631
 807, 289.001, 0.9875, 2.63453e-12, 1.05381e-07, 0.441631
 810, 290.001, 0.9875, 2.88774e-12, 1.15509e-07, 0.441631
 813, 291.001, 0.9875, 3.16425e-12, 1.2657e-07, 0.441631
 816, 292.001, 0.9875, 3.46612e-12, 1.38645e-07, 0.441631
 819, 293.001, 0.9875, 3.79556e-12, 1.51823e-07, 0.441631
 822, 294.001, 0.9875, 4.15499e-12, 1.662e-07, 0.441631
 825, 295.001, 0.9875, 4.547e-12, 1.8188e-07, 0.441631
 828, 296.001, 0.9875, 4.97443e-12, 1.98977e-07, 0.441631
 831, 297.001, 0.9875, 5.44032e-12, 2.17613e-07, 0.441631
 834, 298.001, 0.9875, 5.94798e-12, 2.37919e-07, 0.441631
 837, 299.001, 0.9875, 6.50098e-12, 2.60039e-07, 0.441631
 840, 300.001, 0.9875, 7.10319e-12, 2.84127e-07, 0.441631
 843, 301.001, 0.9875, 7.75879e-12, 3.10352e-07, 0.441631
 846, 302.001, 0.9875, 8.4723e-12, 3.38892e-07, 0.441631
 849, 303.001, 0.9875, 9.2486e-12, 3.69944e-07, 0.441631
 852, 304.001, 0.9875, 1.0093e-11, 4.03719e-07, 0.441631
 855, 305.001, 0.9875, 1.10111e-11, 4.40444e-07, 0.441631
 858, 306.001, 0.9875, 1.20091e-11, 4.80365e-07, 0.441631
 861, 307.001, 0.9875, 1.30937e-11, 5.23748e-07, 0.441631
 864, 308.001, 0.9875, 1.4272e-11, 5.70879e-07, 0.441631
 867, 309.001, 0.9875, 1.55517e-11, 6.22067e-07, 0.441631
 870, 310.001, 0.9875, 1.69411e-11, 6.77646e-07, 0.441631
 873, 311.001, 0.9875, 1.84493e-11, 7.37973e-07, 0.441631
 876, 312.001, 0.9875, 2.00859e-11, 8.03438e-07, 0.441631
 879, 313.001, 0.9875, 2.18614e-11, 8.74456e-07, 0.441631
 882, 314.001, 0.9875, 2.37869e-11, 9.51477e-07, 0.441631
 885, 315.001, 0.9875, 2.58746e-11, 1.03498e-06, 0.441631
 888, 316.001, 0.9875, 2.81375e-11, 1.1255e-06, 0.441631
 891, 317.001, 0.9875, 3.05896e-11, 1.22358e-06, 0.441631
 894, 318.001, 0.9875, 3.3246e-11, 1.32984e-06, 0.441631
 897, 319.001, 0.9875, 3.61229e-11, 1.44491e-06, 0.441631
 900, 320.001, 0.9875, 3.92377e-11, 1.56951e-06, 0.441631
 903, 321.001, 0.9875, 4.26093e-11, 1.70437e-06, 0.441631
 906, 322.001, 0.9875, 4.62578e-11, 1.85031e-06, 0.441631
 909, 323.001, 0.9875, 5.02049e-11, 2.00819e-06, 0.441631
 912, 324.001, 0.9875, 5.44738e-11, 2.17895e-06, 0.441631
 915, 325.001, 0.9875, 5.90895e-11, 2.36358e-06, 0.441631
 918, 326.001, 0.9875, 6.4079e-11, 2.56316e-06, 0.441631
 921, 327.001, 0.9875, 6.9471e-11, 2.77884e-06, 0.441631
 924, 328.001, 0.9875, 7.52965e-11, 3.01186e-06, 0.441631
 927, 329.001, 0.9875, 8.15887e-11, 3.26355e-06, 0.441631
 930, 330.001, 0.9875, 8.83832e-11, 3.53533e-06, 0.441631
 933, 331.001, 0.9875, 9.57181e-11, 3.82872e-06, 0.441631
 936, 332.001, 0.9875, 1.03634e-10, 4.14538e-06, 0.441631
 939, 333.001, 0.9875, 1.12176e-10, 4.48704e-06, 0.441631
 942, 334.001, 0.9875, 1.2139e-10, 4.8556e-06, 0.441631
 945, 335.001, 0.9875, 1.31327e-10, 5.25307e-06, 0.441631
 948, 336.001, 0.9875, 1.4204e-10, 5.68161e-06, 0.441631
 951, 337.001, 0.9875, 1.53588e-10, 6.14352e-06, 0.441631
 954, 338.001, 0.9875, 1.66032e-10, 6.64129e-06, 0.441631
 957, 339.001, 0.9875, 1.79439e-10, 7.17757e-06, 0.441631
 960, 340.001, 0.9875, 1.9388e-10, 7.75518e-06, 0.441631
 963, 341.001, 0.9875, 2.09429e-10, 8.37717e-06, 0.441631
 966, 342.001, 0.9875, 2.26169e-10, 9.04677e-06, 0.441631
 969, 343.001, 0.9875, 2.44186e-10, 9.76745e-06, 0.441631
 972, 344.001, 0.9875, 2.63573e-10, 1.05429e-05, 0.441631
 975, 345.001, 0.9875, 2.84429e-10, 1.13772e-05, 0.441631
 978, 346.001, 0.9875, 3.06859e-10, 1.22744e-05, 0.441631
 981, 347.001, 0.9875, 3.30978e-10, 1.32391e-05, 0.441631
 984, 348.001, 0.9875, 3.56905e-10, 1.42762e-05, 0.441631
 987, 349.001, 0.9875, 3.8477e-10, 1.53908e-05, 0.441631
 990, 350.001, 0.9875, 4.1471e-10, 1.65884e-05, 0.441631
 993, 351.001, 0.9875, 4.46873e-10, 1.78749e-05, 0.441631
 996, 352.001, 0.9875, 4.81415e-10, 1.92566e-05, 0.441631
 999, 353.001, 0.9875, 5.18504e-10, 2.07401e-05, 0.441631
 1002, 354.001, 0.9875, 5.58317e-10, 2.23327e-05, 0.441631
 1005, 355.001, 0.9875, 6.01047e-10, 2.40419e-05, 0.441631
 1008, 356.001, 0.9875, 6.46895e-10, 2.58758e-05, 0.441631
 1011, 357.001, 0.9875, 6.96078e-10, 2.78431e-05, 0.441631
 1014, 358.001, 0.9875, 7.48826e-10, 2.9953e-05, 0.441631
 1017, 359.001, 0.9875, 8.05385e-10, 3.22154e-05, 0.441631
 1020, 360.001, 0.9875, 8.66017e-10, 3.46407e-05, 0.441631
 1023, 361.001, 0.9875, 9.31001e-10, 3.724e-05, 0.441631
 1026, 362.001, 0.9875, 1.00063e-09, 4.00253e-05, 0.441631
 1029, 363.001, 0.9875, 1.07523e-09, 4.30091e-05, 0.441631
 1032, 364.001, 0.9875, 1.15512e-09, 4.6205e-05, 0.441631
 1035, 365.001, 0.9875, 1.24068e-09, 4.96271e-05, 0.441631
 1038, 366.001, 0.9875, 1.33227e-09, 5.32908e-05, 0.441631
 1041, 367.001, 0.9875, 1.43031e-09, 5.72123e-05, 0.441631
 1044, 368.001, 0.9875, 1.53522e-09, 6.14087e-05, 0.441631
 1047, 369.001, 0.9875, 1.64746e-09, 6.58984e-05, 0.441631
 1050, 370.001, 0.9875, 1.76752e-09, 7.07008e-05, 0.441631
 1053, 371.001, 0.9875, 1.89591e-09, 7.58366e-05, 0.441631
 1056, 372.001, 0.9875, 2.0332e-09, 8.13278e-05, 0.441631
 1059, 373.001, 0.9875, 2.17994e-09, 8.71978e-05, 0.441631
 1062, 374.001, 0.9875, 2.33678e-09, 9.34713e-05, 0.441631
 1065, 375.001, 0.9875, 2.50437e-09, 0.000100175, 0.441632
 1068, 376.001, 0.9875, 2.6834e-09, 0.000107336, 0.441632
 1071, 377.001, 0.9875, 2.87461e-09, 0.000114985, 0.441632
 1074, 378.001, 0.9875, 3.07881e-09, 0.000123152, 0.441632
 1077, 379.001, 0.9875, 3.29681e-09, 0.000131872, 0.441632
 1080, 380.001, 0.9875, 3.52951e-09, 0.00014118, 0.441632
 1083, 381.001, 0.9875, 3.77785e-09, 0.000151114, 0.441632
 1086, 382.001, 0.9875, 4.04282e-09, 0.000161713, 0.441632
 1089, 383.001, 0.9875, 4.32548e-09, 0.000173019, 0.441632
 1092, 384.001, 0.9875, 4.62695e-09, 0.000185078, 0.441632
 1095, 385.001, 0.9875, 4.94842e-09, 0.000197937, 0.441632
 1098, 386.001, 0.9875, 5.29115e-09, 0.000211646, 0.441632
 1101, 387.001, 0.9875, 5.65647e-09, 0.000226259, 0.441632
 1104, 388.001, 0.9875, 6.04578e-09, 0.000241831, 0.441632
 1107, 389.001, 0.9875, 6.4606e-09, 0.000258424, 0.441632
 1110, 390.001, 0.9875, 6.90249e-09, 0.0002761, 0.441633
 1113, 391.001, 0.9875, 7.37314e-09, 0.000294926, 0.441633
 1116, 392.001, 0.9875, 7.87432e-09, 0.000314973, 0.441633
 1119, 393.001, 0.9875, 8.40791e-09, 0.000336316, 0.441633
 1122, 394.001, 0.9875, 8.97589e-09, 0.000359036, 0.441633
 1125, 395.001, 0.9875, 9.58037e-09, 0.000383215, 0.441633
 1128, 396.001, 0.9875, 1.02236e-08, 0.000408942, 0.441633
 1131, 397.001, 0.9875, 1.09078e-08, 0.000436313, 0.441633
 1134, 398.001, 0.987499, 1.16356e-08, 0.000465425, 0.441634
 1137, 399.001, 0.987499, 1.24096e-08, 0.000496384, 0.441634
 1140, 400.001, 0.987499, 1.32325e-08, 0.000529301, 0.441634
 1143, 401.001, 0.987499, 1.41074e-08, 0.000564294, 0.441634
 1146, 402.001, 0.987499, 1.50372e-08, 0.000601486, 0.441634
 1149, 403.001, 0.987499, 1.60252e-08, 0.000641009, 0.441635
 1152, 404.001, 0.987499, 1.7075e-08, 0.000683, 0.441635
 1155, 405.001, 0.987499, 1.81901e-08, 0.000727605, 0.441635
 1158, 406.001, 0.987499, 1.93745e-08, 0.000774979, 0.441636
 1161, 407.001, 0.987499, 2.06321e-08, 0.000825285, 0.441636
 1164, 408.001, 0.987499, 2.19673e-08, 0.000878694, 0.441636
 1167, 409.001, 0.987499, 2.33847e-08, 0.000935387, 0.441636
 1170, 410.001, 0.987499, 2.48889e-08, 0.000995555, 0.441637
 1173, 411.001, 0.987499, 2.6485e-08, 0.0010594, 0.441637
 1176, 412.001, 0.987499, 2.81784e-08, 0.00112714, 0.441638
 1179, 413.001, 0.987499, 2.99747e-08, 0.00119899, 0.441638
 1182, 414.001, 0.987499, 3.18797e-08, 0.00127519, 0.441639
 1185, 415.001, 0.987498, 3.38997e-08, 0.00135599, 0.441639
 1188, 416.001, 0.987498, 3.60413e-08, 0.00144165, 0.441639
 1191, 417.001, 0.987498, 3.83114e-08, 0.00153246, 0.44164
 1194, 418.001, 0.987498, 4.07173e-08, 0.00162869, 0.441641
 1197, 419.001, 0.987498, 4.32666e-08, 0.00173067, 0.441641
 1200, 420.001, 0.987498, 4.59675e-08, 0.0018387, 0.441642
 1203, 421.001, 0.987498, 4.88285e-08, 0.00195314, 0.441643
 1206, 422.001, 0.987498, 5.18585e-08, 0.00207434, 0.441643
 1209, 423.001, 0.987497, 5.50671e-08, 0.00220268, 0.441644
 1212, 424.001, 0.987497, 5.84641e-08, 0.00233856, 0.441645
 1215, 425.001, 0.987497, 6.206e-08, 0.0024824, 0.441646
 1218, 426.001, 0.987497, 6.58658e-08, 0.00263463, 0.441647
 1221, 427.001, 0.987497, 6.98931e-08, 0.00279572, 0.441648
 1224, 428.001, 0.987496, 7.41541e-08, 0.00296616, 0.441649
 1227, 429.001, 0.987496, 7.86616e-08, 0.00314646, 0.44165
 1230, 430.001, 0.987496, 8.34291e-08, 0.00333717, 0.441651
 1233, 431.001, 0.987496, 8.84708e-08, 0.00353883, 0.441652
 1236, 432.001, 0.987495, 9.38015e-08, 0.00375206, 0.441653
 1239, 433.001, 0.987495, 9.9437e-08, 0.00397748, 0.441655
 1242, 434.001, 0.987495, 1.05394e-07, 0.00421574, 0.441656
 1245, 435.001, 0.987494, 1.11689e-07, 0.00446755, 0.441658
 1248, 436.001, 0.987494, 1.1834e-07, 0.00473361, 0.441659
 1251, 437.001, 0.987494, 1.25368e-07, 0.00501471, 0.441661
 1254, 438.001, 0.987493, 1.32791e-07, 0.00531164, 0.441662
 1257, 439.001, 0.987493, 1.40631e-07, 0.00562524, 0.441664
 1260, 440.001, 0.987493, 1.4891e-07, 0.0059564, 0.441666
 1263, 441.001, 0.987492, 1.57651e-07, 0.00630604, 0.441668
 1266, 442.001, 0.987492, 1.66878e-07, 0.00667514, 0.441671
 1269, 443.001, 0.987491, 1.76618e-07, 0.00706472, 0.441673
 1272, 444.001, 0.987491, 1.86896e-07, 0.00747586, 0.441675
 1275, 445.001, 0.98749, 1.97742e-07, 0.00790967, 0.441678
 1278, 446.001, 0.987489, 2.09184e-07, 0.00836735, 0.441681
 1281, 447.001, 0.987489, 2.21253e-07, 0.00885012, 0.441683
 1284, 448.001, 0.987488, 2.33982e-07, 0.0093593, 0.441687
 1287, 449.001, 0.987487, 2.47406e-07, 0.00989623, 0.44169
 1290, 450.001, 0.987487, 2.61559e-07, 0.0104624, 0.441693
 1293, 451.001, 0.987486, 2.76479e-07, 0.0110592, 0.441697
 1296, 452.001, 0.987485, 2.92206e-07, 0.0116882, 0.4417
 1299, 453.001, 0.987484, 3.0878e-07, 0.0123512, 0.441704
 1302, 454.001, 0.987483, 3.26244e-07, 0.0130498, 0.441708
 1305, 455.001, 0.987482, 3.44645e-07, 0.0137858, 0.441713
 1308, 456.001, 0.987481, 3.64028e-07, 0.0145611, 0.441717
 1311, 457.001, 0.98748, 3.84444e-07, 0.0153778, 0.441722
 1314, 458.001, 0.987479, 4.05944e-07, 0.0162378, 0.441727
 1317, 459.001, 0.987477, 4.28583e-07, 0.0171433, 0.441732
 1320, 460.001, 0.987476, 4.52417e-07, 0.0180967, 0.441738
 1323, 461.001, 0.987475, 4.77506e-07, 0.0191003, 0.441744
 1326, 462.001, 0.987473, 5.03913e-07, 0.0201565, 0.44175
 1329, 463.001, 0.987472, 5.31702e-07, 0.0212681, 0.441757
 1332, 464.001, 0.98747, 5.60942e-07, 0.0224377, 0.441764
 1335, 465.001, 0.987468, 5.91704e-07, 0.0236682, 0.441771
 1338, 466.001, 0.987466, 6.24063e-07, 0.0249625, 0.441778
 1341, 467.001, 0.987465, 6.58096e-07, 0.0263239, 0.441786
 1344, 468.001, 0.987463, 6.93886e-07, 0.0277555, 0.441795
 1347, 469.001, 0.98746, 7.31518e-07, 0.0292607, 0.441804
 1350, 470.001, 0.987458, 7.71081e-07, 0.0308433, 0.441813
 1353, 471.001, 0.987456, 8.12669e-07, 0.0325068, 0.441823
 1356, 472.001, 0.987453, 8.56379e-07, 0.0342552, 0.441833
 1359, 473.001, 0.987451, 9.02313e-07, 0.0360925, 0.441844
 1362, 474.001, 0.987448, 9.50577e-07, 0.0380231, 0.441855
 1365, 475.001, 0.987445, 1.00128e-06, 0.0400513, 0.441867
 1368, 476.001, 0.987442, 1.05455e-06, 0.0421819, 0.44188
 1371, 477.001, 0.987439, 1.11049e-06, 0.0444197, 0.441893
 1374, 478.001, 0.987435, 1.16924e-06, 0.0467698, 0.441906
 1377, 479.001, 0.987432, 1.23093e-06, 0.0492374, 0.441921
 1380, 480.001, 0.987428, 1.2957e-06, 0.0518281, 0.441936
 1383, 481.001, 0.987424, 1.36369e-06, 0.0545477, 0.441952
 1386, 482.001, 0.98742, 1.43506e-06, 0.0574022, 0.441969
 1389, 483.001, 0.987415, 1.50995e-06, 0.060398, 0.441986
 1392, 484.001, 0.98741, 1.58854e-06, 0.0635415, 0.442005
 1395, 485.001, 0.987406, 1.67099e-06, 0.0668397, 0.442024
 1398, 486.001, 0.9874, 1.75749e-06, 0.0702996, 0.442044
 1401, 487.001, 0.987395, 1.84822e-06, 0.0739289, 0.442065
 1404, 488.001, 0.987389, 1.94338e-06, 0.0777352, 0.442088
 1407, 489.001, 0.987383, 2.04316e-06, 0.0817266, 0.442111
 1410, 490.001, 0.987377, 2.14779e-06, 0.0859117, 0.442135
 1413, 491.001, 0.98737, 2.25748e-06, 0.0902992, 0.442161
 1416, 492.001, 0.987364, 2.37246e-06, 0.0948985, 0.442188
 1419, 493.001, 0.987356, 2.49298e-06, 0.099719, 0.442216
 1422, 494.001, 0.987349, 2.61927e-06, 0.104771, 0.442245
 1425, 495.001, 0.987341, 2.75161e-06, 0.110064, 0.442276
 1428, 496.001, 0.987332, 2.89026e-06, 0.11561, 0.442309
 1431, 497.001, 0.987323, 3.03551e-06, 0.12142, 0.442343
 1434, 498.001, 0.987314, 3.18765e-06, 0.127506, 0.442378
 1437, 499.001, 0.987304, 3.34699e-06, 0.13388, 0.442415
 1440, 500.001, 0.987294, 3.51385e-06, 0.140554, 0.442454
 1443, 501.001, 0.987283, 3.68856e-06, 0.147543, 0.442495
 1446, 502.001, 0.987272, 3.87148e-06, 0.154859, 0.442537
 1449, 503.001, 0.98726, 4.06295e-06, 0.162518, 0.442582
 1452, 504.001, 0.987247, 4.26336e-06, 0.170534, 0.442628
 1455, 505.001, 0.987234, 4.4731e-06, 0.178924, 0.442677
 1458, 506.001, 0.98722, 4.69257e-06, 0.187703, 0.442728
 1461, 507.001, 0.987206, 4.92221e-06, 0.196888, 0.442781
 1464, 508.001, 0.987191, 5.16244e-06, 0.206498, 0.442837
 1467, 509.001, 0.987175, 5.41374e-06, 0.21655, 0.442896
 1470, 510.001, 0.987158, 5.67657e-06, 0.227063, 0.442957
 1473, 511.001, 0.987141, 5.95144e-06, 0.238058, 0.44302
 1476, 512.001, 0.987123, 6.23886e-06, 0.249554, 0.443087
 1479, 513.001, 0.987103, 6.53937e-06, 0.261575, 0.443157
 1482, 514.001, 0.987083, 6.85352e-06, 0.274141, 0.44323
 1485, 515.001, 0.987062, 7.18191e-06, 0.287276, 0.443306
 1488, 516.001, 0.98704, 7.52512e-06, 0.301005, 0.443385
 1491, 517.001, 0.987017, 7.8838e-06, 0.315352, 0.443468
 1494, 518.001, 0.986993, 8.25859e-06, 0.330343, 0.443555
 1497, 519.001, 0.986968, 8.65016e-06, 0.346007, 0.443646
 1500, 520.001, 0.986941, 9.05924e-06, 0.362369, 0.44374
 1503, 521.001, 0.986913, 9.48653e-06, 0.379461, 0.443839
 1506, 522.001, 0.986884, 9.93282e-06, 0.397313, 0.443942
 1509, 523.001, 0.986854, 1.03989e-05, 0.415955, 0.44405
 1512, 524.001, 0.986822, 1.08855e-05, 0.435421, 0.444162
 1515, 525.001, 0.986788, 1.13936e-05, 0.455745, 0.44428
 1518, 526.001, 0.986753, 1.19241e-05, 0.476963, 0.444402
 1521, 527.001, 0.986717, 1.24778e-05, 0.49911, 0.44453
 1524, 528.001, 0.986678, 1.30556e-05, 0.522226, 0.444663
 1527, 529.001, 0.986638, 1.36587e-05, 0.546349, 0.444802
 1530, 530.001, 0.986596, 1.4288e-05, 0.57152, 0.444948
 1533, 531.001, 0.986553, 1.49446e-05, 0.597783, 0.445099
 1536, 532.001, 0.986507, 1.56295e-05, 0.625182, 0.445257
 1539, 533.001, 0.986459, 1.6344e-05, 0.653762, 0.445421
 1542, 534.001, 0.986409, 1.70893e-05, 0.68357, 0.445593
 1545, 535.001, 0.986356, 1.78664e-05, 0.714657, 0.445772
 1548, 536.001, 0.986301, 1.86768e-05, 0.747073, 0.445958
 1551, 537.001, 0.986244, 1.95218e-05, 0.780872, 0.446153
 1554, 538.001, 0.986184, 2.04027e-05, 0.816108, 0.446355
 1557, 539.001, 0.986122, 2.1321e-05, 0.852838, 0.446566
 1560, 540.001, 0.986056, 2.2278e-05, 0.891122, 0.446786
 1563, 541.001, 0.985988, 2.32755e-05, 0.93102, 0.447015
 1566, 542.001, 0.985916, 2.43149e-05, 0.972596, 0.447254
 1569, 543.001, 0.985842, 2.53979e-05, 1.01592, 0.447503
 1572, 544.001, 0.985764, 2.65262e-05, 1.06105, 0.447761
 1575, 545.001, 0.985683, 2.77015e-05, 1.10806, 0.448031
 1578, 546.001, 0.985598, 2.89258e-05, 1.15703, 0.448312
 1581, 547.001, 0.985509, 3.02008e-05, 1.20803, 0.448604
 1584, 548.001, 0.985416, 3.15285e-05, 1.26114, 0.448908
 1587, 549.001, 0.98532, 3.2911e-05, 1.31644, 0.449225
 1590, 550.001, 0.985219, 3.43504e-05, 1.37401, 0.449554
 1593, 551.001, 0.985114, 3.58487e-05, 1.43395, 0.449897
 1596, 552.001, 0.985004, 3.74084e-05, 1.49633, 0.450254
 1599, 553.001, 0.984889, 3.90316e-05, 1.56126, 0.450625
 1602, 554.001, 0.98477, 4.07208e-05, 1.62883, 0.451012
 1605, 555.001, 0.984645, 4.24785e-05, 1.69914, 0.451413
 1608, 556.001, 0.984515, 4.43072e-05, 1.77229, 0.451831
 1611, 557.001, 0.984379, 4.62097e-05, 1.84839, 0.452266
 1614, 558.001, 0.984237, 4.81885e-05, 1.92754, 0.452717
 1617, 559.001, 0.98409, 5.02467e-05, 2.00987, 0.453187
 1620, 560.001, 0.983936, 5.23871e-05, 2.09548, 0.453675
 1623, 561.001, 0.983775, 5.46128e-05, 2.18451, 0.454183
 1626, 562.001, 0.983608, 5.69268e-05, 2.27707, 0.45471
 1629, 563.001, 0.983433, 5.93324e-05, 2.3733, 0.455258
 1632, 564.001, 0.983252, 6.1833e-05, 2.47332, 0.455828
 1635, 565.001, 0.983062, 6.4432e-05, 2.57728, 0.45642
 1638, 566.001, 0.982865, 6.7133e-05, 2.68532, 0.457034
 1641, 567.001, 0.982659, 6.99396e-05, 2.79758, 0.457673
 1644, 568.001, 0.982445, 7.28556e-05, 2.91422, 0.458336
 1647, 569.001, 0.982222, 7.5885e-05, 3.0354, 0.459024
 1650, 570.001, 0.98199, 7.90317e-05, 3.16127, 0.459739
 1653, 571.001, 0.981748, 8.23e-05, 3.292, 0.460482
 1656, 572.001, 0.981496, 8.56941e-05, 3.42776, 0.461252
 1659, 573.001, 0.981233, 8.92185e-05, 3.56874, 0.462052
 1662, 574.001, 0.98096, 9.28776e-05, 3.7151, 0.462882
 1665, 575.001, 0.980676, 9.66763e-05, 3.86705, 0.463744
 1668, 576.001, 0.98038, 0.000100619, 4.02477, 0.464637
 1671, 577.001, 0.980072, 0.000104712, 4.18846, 0.465565
 1674, 578.001, 0.979752, 0.000108958, 4.35833, 0.466526
 1677, 579.001, 0.979418, 0.000113365, 4.53459, 0.467524
 1680, 580.001, 0.979071, 0.000117937, 4.71746, 0.468558
 1683, 581.001, 0.97871, 0.000122679, 4.90716, 0.469631
 1686, 582.001, 0.978335, 0.000127598, 5.10392, 0.470743
 1689, 583.001, 0.977944, 0.000132699, 5.30797, 0.471896
 1692, 584.001, 0.977538, 0.000137989, 5.51957, 0.473091
 1695, 585.001, 0.977116, 0.000143474, 5.73895, 0.474329
 1698, 586.001, 0.976677, 0.00014916, 5.96638, 0.475612
 1701, 587.001, 0.976221, 0.000155053, 6.20212, 0.476941
 1704, 588.001, 0.975747, 0.000161161, 6.44645, 0.478318
 1707, 589.001, 0.975254, 0.000167491, 6.69963, 0.479745
 1710, 590.001, 0.974742, 0.000174049, 6.96196, 0.481222
 1713, 591.001, 0.974209, 0.000180843, 7.23372, 0.482752
 1716, 592.001, 0.973656, 0.00018788, 7.51522, 0.484335
 1719, 593.001, 0.973082, 0.000195169, 7.80676, 0.485974
 1722, 594.001, 0.972485, 0.000202717, 8.10866, 0.487671
 1725, 595.001, 0.971865, 0.000210531, 8.42124, 0.489427
 1728, 596.001, 0.971221, 0.000218621, 8.74483, 0.491244
 1731, 597.001, 0.970553, 0.000226994, 9.07977, 0.493123
 1734, 598.001, 0.969859, 0.00023566, 9.4264, 0.495067
 1737, 599.001, 0.969139, 0.000244627, 9.78507, 0.497078
 1740, 600.001, 0.968391, 0.000253904, 10.1562, 0.499156
 1743, 601.001, 0.967615, 0.0002635, 10.54, 0.501306
 1746, 602.001, 0.966809, 0.000273425, 10.937, 0.503527
 1749, 603.001, 0.965974, 0.000283688, 11.3475, 0.505823
 1752, 604.001, 0.965107, 0.000294299, 11.772, 0.508196
 1755, 605.001, 0.964207, 0.000305269, 12.2107, 0.510647
 1758, 606.001, 0.963275, 0.000316606, 12.6642, 0.513179
 1761, 607.001, 0.962307, 0.000328321, 13.1329, 0.515793
 1764, 608.001, 0.961304, 0.000340426, 13.617, 0.518493
 1767, 609.001, 0.960264, 0.000352929, 14.1172, 0.52128
 1770, 610.001, 0.959186, 0.000365843, 14.6337, 0.524157
 1773, 611.001, 0.958069, 0.000379178, 15.1671, 0.527125
 1776, 612.001, 0.95691, 0.000392945, 15.7178, 0.530188
 1779, 613.001, 0.95571, 0.000407156, 16.2862, 0.533347
 1782, 614.001, 0.954467, 0.000421821, 16.8728, 0.536605
 1785, 615.001, 0.953179, 0.000436952, 17.4781, 0.539963
 1788, 616.001, 0.951845, 0.00045256, 18.1024, 0.543426
 1791, 617.001, 0.950463, 0.000468658, 18.7463, 0.546994
 1794, 618.001, 0.949032, 0.000485257, 19.4103, 0.550671
 1797, 619.001, 0.947551, 0.000502368, 20.0947, 0.554458
 1800, 620.001, 0.946017, 0.000520004, 20.8001, 0.558358
 1803, 621.001, 0.94443, 0.000538175, 21.527, 0.562373
 1806, 622.001, 0.942787, 0.000556895, 22.2758, 0.566506
 1809, 623.001, 0.941088, 0.000576174, 23.047, 0.570759
 1812, 624.001, 0.93933, 0.000596025, 23.841, 0.575134
 1815, 625.001, 0.937511, 0.000616459, 24.6584, 0.579634
 1818, 626.001, 0.93563, 0.000637488, 25.4995, 0.58426
 1821, 627.001, 0.933685, 0.000659122, 26.3649, 0.589015
 1824, 628.001, 0.931674, 0.000681374, 27.255, 0.593901
 1827, 629.001, 0.929596, 0.000704254, 28.1702, 0.598919
 1830, 630.001, 0.927448, 0.000727773, 29.1109, 0.604073
 1833, 631.001, 0.925228, 0.000751942, 30.0777, 0.609363
 1836, 632.001, 0.922935, 0.00077677, 31.0708, 0.614792
 1839, 633.001, 0.920567, 0.000802269, 32.0908, 0.620361
 1842, 634.001, 0.918121, 0.000828446, 33.1379, 0.626071
 1845, 635.001, 0.915595, 0.000855312, 34.2125, 0.631925
 1848, 636.001, 0.912988, 0.000882874, 35.315, 0.637922
 1851, 637.001, 0.910297, 0.000911142, 36.4457, 0.644066
 1854, 638.001, 0.90752, 0.00094012, 37.6048, 0.650355
 1857, 639.001, 0.904655, 0.000969818, 38.7927, 0.656792
 1860, 640.001, 0.9017, 0.00100024, 40.0096, 0.663376
 1863, 641.001, 0.898653, 0.00103139, 41.2557, 0.670109
 1866, 642.001, 0.895511, 0.00106328, 42.5311, 0.676989
 1869, 643.001, 0.892272, 0.0010959, 43.836, 0.684017
 1872, 644.001, 0.888934, 0.00112926, 45.1705, 0.691193
 1875, 645.001, 0.885495, 0.00116336, 46.5346, 0.698515
 1878, 646.001, 0.881953, 0.00119821, 47.9283, 0.705983
 1881, 647.001, 0.878305, 0.00123379, 49.3516, 0.713596
 1884, 648.001, 0.874549, 0.00127011, 50.8043, 0.721351
 1887, 649.001, 0.870683, 0.00130716, 52.2864, 0.729246
 1890, 650.001, 0.866705, 0.00134494, 53.7974, 0.737279
 1893, 651.001, 0.862613, 0.00138343, 55.3373, 0.745447
 1896, 652.001, 0.858404, 0.00142264, 56.9055, 0.753747
 1899, 653.001, 0.854076, 0.00146254, 58.5018, 0.762175
 1902, 654.001, 0.849627, 0.00150314, 60.1254, 0.770726
 1905, 655.001, 0.845056, 0.0015444, 61.7759, 0.779396
 1908, 656.001, 0.84036, 0.00158632, 63.4526, 0.788179
 1911, 657.001, 0.835537, 0.00162887, 65.1547, 0.797069
 1914, 658.001, 0.830585, 0.00167203, 66.8812, 0.80606
 1917, 659.001, 0.825504, 0.00171578, 68.6313, 0.815145
 1920, 660.001, 0.82029, 0.0017601, 70.4038, 0.824314
 1923, 661.001, 0.814942, 0.00180494, 72.1976, 0.833561
 1926, 662.001, 0.809459, 0.00185029, 74.0114, 0.842876
 1929, 663.001, 0.80384, 0.00189609, 75.8437, 0.852249
 1932, 664.001, 0.798082, 0.00194233, 77.693, 0.861668
 1935, 665.001, 0.792185, 0.00198894, 79.5576, 0.871124
 1938, 666.001, 0.786147, 0.00203589, 81.4358, 0.880603
 1941, 667.001, 0.779969, 0.00208314, 83.3255, 0.890092
 1944, 668.001, 0.773648, 0.00213062, 85.2248, 0.899577
 1947, 669.001, 0.767184, 0.00217828, 87.1313, 0.909045
 1950, 670.001, 0.760577, 0.00222607, 89.0428, 0.918478
 1953, 671.001, 0.753827, 0.00227392, 90.9568, 0.927861
 1956, 672.001, 0.746933, 0.00232176, 92.8705, 0.937176
 1959, 673.001, 0.739896, 0.00236953, 94.7811, 0.946404
 1962, 674.001, 0.732716, 0.00241715, 96.6858, 0.955528
 1965, 675.001, 0.725393, 0.00246453, 98.5814, 0.964526
 1968, 676.001, 0.717929, 0.00251161, 100.465, 0.973377
 1971, 677.001, 0.710323, 0.0025583, 102.332, 0.98206
 1974, 678.001, 0.702579, 0.0026045, 104.18, 0.990553
 1977, 679.001, 0.694696, 0.00265012, 106.005, 0.99883
 1980, 680.001, 0.686678, 0.00269507, 107.803, 1.00687
 1983, 681.001, 0.678526, 0.00273925, 109.57, 1.01464
 1986, 682.001, 0.670243, 0.00278255, 111.302, 1.02213
 1989, 683.001, 0.661832, 0.00282486, 112.994, 1.0293
 1992, 684.001, 0.653295, 0.00286608, 114.643, 1.03612
 1995, 685.001, 0.644636, 0.00290609, 116.244, 1.04257
 1998, 686.001, 0.635859, 0.00294478, 117.791, 1.04862
 2001, 687.001, 0.626968, 0.00298203, 119.281, 1.05424
 2004, 688.001, 0.617968, 0.00301771, 120.708, 1.05941
 2007, 689.001, 0.608863, 0.00305171, 122.069, 1.06408
 2010, 690.001, 0.599659, 0.00308391, 123.356, 1.06824
 2013, 691.001, 0.590362, 0.00311418, 124.567, 1.07185
 2016, 692.001, 0.580976, 0.00314239, 125.696, 1.07488
 2019, 693.001, 0.571509, 0.00316843, 126.737, 1.07731
 2022, 694.001, 0.561968, 0.00319216, 127.686, 1.07909
 2025, 695.001, 0.552358, 0.00321347, 128.539, 1.08022
 2028, 696.001, 0.542689, 0.00323223, 129.289, 1.08065
 2031, 697.001, 0.532967, 0.00324833, 129.933, 1.08036
 2034, 698.001, 0.523202, 0.00326165, 130.466, 1.07932
 2037, 699.001, 0.5134, 0.00327207, 130.883, 1.07751
 2040, 700.001, 0.503572, 0.0032795, 131.18, 1.07491
 2043, 701.001, 0.493726, 0.00328382, 131.353, 1.07148
 2046, 702.001, 0.483872, 0.00328495, 131.398, 1.06722
 2049, 703.001, 0.47402, 0.00328279, 131.312, 1.0621
 2052, 704.001, 0.464179, 0.00327727, 131.091, 1.0561
 2055, 705.001, 0.45436, 0.0032683, 130.732, 1.04921
 2058, 706.001, 0.444573, 0.00325582, 130.233, 1.04143
 2061, 707.001, 0.434829, 0.00323979, 129.592, 1.03273
 2064, 708.001, 0.425138, 0.00322015, 128.806, 1.02311
 2067, 709.001, 0.415512, 0.00319688, 127.875, 1.01258
 2070, 710.001, 0.405961, 0.00316996, 126.798, 1.00112
 2073, 711.001, 0.396496, 0.00313937, 125.575, 0.988746
 2076, 712.001, 0.387128, 0.00310514, 124.205, 0.975464
 2079, 713.001, 0.377869, 0.00306727, 122.691, 0.961282
 2082, 714.001, 0.368729, 0.00302581, 121.032, 0.946216
 2085, 715.001, 0.359718, 0.0029808, 119.232, 0.930283
 2088, 716.001, 0.350848, 0.00293232, 117.293, 0.913507
 2091, 717.001, 0.342128, 0.00288045, 115.218, 0.895914
 2094, 718.001, 0.333569, 0.00282529, 113.012, 0.877535
 2097, 719.001, 0.32518, 0.00276695, 110.678, 0.858403
 2100, 720.001, 0.316971, 0.00270557, 108.223, 0.838559
 2103, 721.001, 0.30895, 0.00264128, 105.651, 0.818044
 2106, 722.001, 0.301127, 0.00257427, 102.971, 0.796905
 2109, 723.001, 0.293508, 0.00250469, 100.188, 0.775191
 2112, 724.001, 0.286101, 0.00243275, 97.3101, 0.752958
 2115, 725.001, 0.278914, 0.00235865, 94.3461, 0.730261
 2118, 726.001, 0.271952, 0.00228261, 91.3045, 0.70716
 2121, 727.001, 0.265221, 0.00220486, 88.1945, 0.683719
 2124, 728.001, 0.258725, 0.00212564, 85.0256, 0.660001
 2127, 729.001, 0.252469, 0.00204519, 81.8077, 0.636074
 2130, 730.001, 0.246456, 0.00196378, 78.5513, 0.612006
 2133, 731.001, 0.240688, 0.00188167, 75.2667, 0.587868
 2136, 732.001, 0.235167, 0.00179911, 71.9646, 0.563729
 2139, 733.001, 0.229894, 0.00171639, 68.6557, 0.539661
 2142, 734.001, 0.22487, 0.00163377, 65.3509, 0.515733
 2145, 735.001, 0.220092, 0.00155152, 62.0608, 0.492016
 2148, 736.001, 0.215561, 0.0014699, 58.7959, 0.468577
 2151, 737.001, 0.211273, 0.00138917, 55.5667, 0.445483
 2154, 738.001, 0.207225, 0.00130958, 52.3831, 0.422799
 2157, 739.001, 0.203415, 0.00123137, 49.2548, 0.400586
 2160, 740.001, 0.199836, 0.00115478, 46.1911, 0.378901
 2163, 741.001, 0.196485, 0.00108001, 43.2005, 0.3578
 2166, 742.001, 0.193355, 0.00100728, 40.2912, 0.337333
 2169, 743.001, 0.19044, 0.000936768, 37.4707, 0.317545
 2172, 744.002, 0.187733, 0.000868642, 34.7457, 0.298477
 2175, 745.002, 0.185226, 0.000803053, 32.1221, 0.280165
 2178, 746.002, 0.182912, 0.000740129, 29.6052, 0.26264
 2181, 747.002, 0.180783, 0.000679981, 27.1993, 0.245926
 2184, 748.002, 0.17883, 0.000622697, 24.9079, 0.230042
 2187, 749.002, 0.177044, 0.000568343, 22.7337, 0.215002
 2190, 750.002, 0.175418, 0.000516965, 20.6786, 0.200813
 2193, 751.002, 0.17394, 0.000468587, 18.7435, 0.187478
 2196, 752.002, 0.172603, 0.000423213, 16.9285, 0.174994
 2199, 753.002, 0.171398, 0.000380827, 15.2331, 0.163352
 2202, 754.002, 0.170316, 0.000341393, 13.6557, 0.152539
 2205, 755.002, 0.169347, 0.000304859, 12.1944, 0.142536
 2208, 756.002, 0.168484, 0.000271154, 10.8462, 0.133323
 2211, 757.002, 0.167718, 0.000240195, 9.6078, 0.124872
 2214, 758.002, 0.167041, 0.000211883, 8.47533, 0.117155
 2217, 759.002, 0.166445, 0.000186109, 7.44437, 0.110139
 2220, 760.002, 0.165922, 0.000162754, 6.51014, 0.10379
 2223, 761.002, 0.165466, 0.000141689, 5.66757, 0.0980706
 2226, 762.002, 0.16507, 0.000122782, 4.9113, 0.0929433
 2229, 763.002, 0.164727, 0.000105896, 4.23584, 0.0883689
 2232, 764.002, 0.164433, 9.08897e-05, 3.63559, 0.0843084
 2235, 765.002, 0.164181, 7.76225e-05, 3.1049, 0.0807225
 2238, 766.002, 0.163966, 6.59547e-05, 2.63819, 0.077572
 2241, 767.002, 0.163783, 5.57483e-05, 2.22993, 0.0748188
 2244, 768.002, 0.16363, 4.68695e-05, 1.87478, 0.0724259
 2247, 769.002, 0.163501, 3.91889e-05, 1.56755, 0.0703582
 2250, 770.002, 0.163394, 3.25829e-05, 1.30332, 0.0685809
 2253, 771.002, 0.163305, 2.69346e-05, 1.07738, 0.0670629
 2256, 772.002, 0.163231, 2.21341e-05, 0.885363, 0.0657738
 2259, 773.002, 0.163171, 1.80793e-05, 0.72317, 0.0646857
 2262, 774.002, 0.163122, 1.46758e-05, 0.587033, 0.0637732
 2265, 775.002, 0.163083, 1.18375e-05, 0.4735, 0.0630128
 2268, 776.002, 0.163051, 9.48605e-06, 0.379442, 0.0623832
 2271, 777.002, 0.163025, 7.55107e-06, 0.302043, 0.0618653
 2274, 778.002, 0.163005, 5.96978e-06, 0.238791, 0.0614425
 2277, 779.002, 0.162989, 4.68664e-06, 0.187466, 0.0610998
 2280, 780.002, 0.162977, 3.65295e-06, 0.146118, 0.0608237
 2283, 781.002, 0.162967, 2.82637e-06, 0.113055, 0.0606031
 2286, 782.002, 0.16296, 2.1704e-06, 0.0868158, 0.0604283
 2289, 783.002, 0.162954, 1.65384e-06, 0.0661536, 0.0602906
 2292, 784.002, 0.16295, 1.25029e-06, 0.0500117, 0.060183
 2295, 785.002, 0.162946, 9.37582e-07, 0.0375033, 0.0600998
 2298, 786.002, 0.162944, 6.97271e-07, 0.0278909, 0.0600359
 2301, 787.002, 0.162942, 5.14164e-07, 0.0205666, 0.0599872
 2304, 788.002, 0.162941, 3.75854e-07, 0.0150342, 0.0599504
 2307, 789.002, 0.16294, 2.7231e-07, 0.0108924, 0.0599228
 2310, 790.002, 0.162939, 1.95498e-07, 0.00781993, 0.0599023
 2313, 791.002, 0.162939, 1.39046e-07, 0.00556186, 0.0598873
 2316, 792.002, 0.162938, 9.79531e-08, 0.00391812, 0.0598766
 2319, 793.002, 0.162938, 6.8331e-08, 0.00273324, 0.0598688
 2322, 794.002, 0.162938, 4.71908e-08, 0.00188763, 0.0598631
 2325, 795.002, 0.162938, 3.22577e-08, 0.00129031, 0.0598591
 2328, 796.002, 0.162938, 2.18192e-08, 0.000872767, 0.0598563
 2331, 797.002, 0.162938, 1.46004e-08, 0.000584016, 0.0598546
 2334, 798.002, 0.162938, 9.66275e-09, 0.00038651, 0.0598533
 2337, 799.002, 0.162938, 6.32315e-09, 0.000252926, 0.0598523
 2340, 800.002, 0.162938, 4.09023e-09, 0.000163609, 0.0598517