File: examples/Birch_TGA_Example/Work/Cone_2abpo9o1/birch_tga_1step_10_tga.csv
s,C,g/g,1/s,W/g,W/g
Time,Temp,Mass,MLR,MCC,DSC
 6, 21.0007, 0.999998, 4.369e-07, 3.70286e-28, 0.236481
 12, 22.0007, 0.999995, 5.01762e-07, 5.17443e-28, 0.236626
 18, 23.0007, 0.999992, 5.75705e-07, 7.2145e-28, 0.236791
 24, 24.0007, 0.999988, 6.5992e-07, 1.00364e-27, 0.236979
 30, 25.0007, 0.999984, 7.55746e-07, 1.39312e-27, 0.237193
 36, 26.0007, 0.999979, 8.64679e-07, 1.92952e-27, 0.237436
 42, 27.0007, 0.999973, 9.88398e-07, 2.66664e-27, 0.237712
 48, 28.0007, 0.999967, 1.12878e-06, 3.67745e-27, 0.238026
 54, 29.0007, 0.99996, 1.28792e-06, 5.06065e-27, 0.238381
 60, 30.0007, 0.999951, 1.46815e-06, 6.94944e-27, 0.238783
 66, 31.0007, 0.999942, 1.67208e-06, 9.52332e-27, 0.239238
 72, 32.0007, 0.999931, 1.90261e-06, 1.30236e-26, 0.239752
 78, 33.0007, 0.999919, 2.16297e-06, 1.77739e-26, 0.240332
 84, 34.0007, 0.999905, 2.45672e-06, 2.42079e-26, 0.240988
 90, 35.0007, 0.999889, 2.78785e-06, 3.29049e-26, 0.241726
 96, 36.0007, 0.999872, 3.16074e-06, 4.46376e-26, 0.242557
 102, 37.0007, 0.999851, 3.58024e-06, 6.04349e-26, 0.243492
 108, 38.0007, 0.999829, 4.05172e-06, 8.16636e-26, 0.244543
 114, 39.0007, 0.999803, 4.58107e-06, 1.10137e-25, 0.245723
 120, 40.0007, 0.999773, 5.17477e-06, 1.48254e-25, 0.247046
 126, 41.0007, 0.99974, 5.83993e-06, 1.99185e-25, 0.248528
 132, 42.0007, 0.999703, 6.58435e-06, 2.67113e-25, 0.250187
 138, 43.0007, 0.999661, 7.41652e-06, 3.57542e-25, 0.252041
 144, 44.0007, 0.999614, 8.34569e-06, 4.77705e-25, 0.25411
 150, 45.0007, 0.999561, 9.38191e-06, 6.37091e-25, 0.256418
 156, 46.0007, 0.999501, 1.0536e-05, 8.48125e-25, 0.258988
 162, 47.0007, 0.999434, 1.18198e-05, 1.12705e-24, 0.261846
 168, 48.0007, 0.999359, 1.32457e-05, 1.49505e-24, 0.26502
 174, 49.0007, 0.999275, 1.48273e-05, 1.97973e-24, 0.268541
 180, 50.0007, 0.999181, 1.65786e-05, 2.61699e-24, 0.272438
 186, 51.0007, 0.999076, 1.85149e-05, 3.45344e-24, 0.276746
 192, 52.0007, 0.998958, 2.06518e-05, 4.54945e-24, 0.281499
 198, 53.0007, 0.998827, 2.30056e-05, 5.98319e-24, 0.286735
 204, 54.0007, 0.998682, 2.55932e-05, 7.8556e-24, 0.292488
 210, 55.0007, 0.99852, 2.84316e-05, 1.02969e-23, 0.298798
 216, 56.0007, 0.99834, 3.15376e-05, 1.34746e-23, 0.305701
 222, 57.0007, 0.998141, 3.49279e-05, 1.76043e-23, 0.313233
 228, 58.0007, 0.99792, 3.86181e-05, 2.29627e-23, 0.32143
 234, 59.0006, 0.997676, 4.26227e-05, 2.9904e-23, 0.330321
 240, 60.0006, 0.997408, 4.69538e-05, 3.8882e-23, 0.339934
 246, 61.0006, 0.997112, 5.1621e-05, 5.0476e-23, 0.350289
 252, 62.0006, 0.996788, 5.66299e-05, 6.54252e-23, 0.361396
 258, 63.0006, 0.996432, 6.19815e-05, 8.4671e-23, 0.373258
 264, 64.0006, 0.996043, 6.76707e-05, 1.09411e-22, 0.38586
 270, 65.0006, 0.995619, 7.36851e-05, 1.41165e-22, 0.399173
 276, 66.0006, 0.995158, 8.00034e-05, 1.81862e-22, 0.413148
 282, 67.0006, 0.994659, 8.65938e-05, 2.33942e-22, 0.427712
 288, 68.0006, 0.994119, 9.34127e-05, 3.00493e-22, 0.442764
 294, 69.0006, 0.993537, 0.000100403, 3.85412e-22, 0.458175
 300, 70.0006, 0.992914, 0.000107491, 4.93612e-22, 0.473779
 306, 71.0006, 0.992247, 0.000114589, 6.31279e-22, 0.489374
 312, 72.0005, 0.991539, 0.000121591, 8.06192e-22, 0.504721
 318, 73.0005, 0.990789, 0.000128371, 1.02811e-21, 0.519538
 324, 74.0005, 0.989999, 0.000134788, 1.30929e-21, 0.533507
 330, 75.0005, 0.989172, 0.000140686, 1.66505e-21, 0.546273
 336, 76.0005, 0.988312, 0.000145893, 2.11457e-21, 0.557452
 342, 77.0005, 0.987423, 0.000150228, 2.68178e-21, 0.566639
 348, 78.0005, 0.986511, 0.000153509, 3.39654e-21, 0.573423
 354, 79.0005, 0.985583, 0.000155554, 4.29604e-21, 0.577402
 360, 80.0005, 0.984647, 0.000156198, 5.42652e-21, 0.578202
 366, 81.0005, 0.983712, 0.000155296, 6.84545e-21, 0.575505
 372, 82.0005, 0.982787, 0.00015274, 8.62412e-21, 0.569073
 378, 83.0005, 0.981883, 0.00014847, 1.08509e-20, 0.558774
 384, 84.0005, 0.981009, 0.000142481, 1.3635e-20, 0.54461
 390, 85.0005, 0.980176, 0.00013484, 1.71117e-20, 0.526736
 396, 86.0005, 0.979394, 0.000125686, 2.14477e-20, 0.505472
 402, 87.0006, 0.978671, 0.000115232, 2.68488e-20, 0.481311
 408, 88.0006, 0.978013, 0.000103764, 3.35683e-20, 0.454901
 414, 89.0006, 0.977427, 9.16268e-05, 4.19177e-20, 0.427026
 420, 90.0006, 0.976915, 7.92048e-05, 5.22798e-20, 0.39856
 426, 91.0006, 0.976476, 6.69e-05, 6.51244e-20, 0.370411
 432, 92.0006, 0.976111, 5.51024e-05, 8.10272e-20, 0.343461
 438, 93.0007, 0.975814, 4.41606e-05, 1.00693e-19, 0.318496
 444, 94.0007, 0.975579, 3.43553e-05, 1.24984e-19, 0.296147
 450, 95.0007, 0.975399, 2.58783e-05, 1.54953e-19, 0.276842
 456, 96.0007, 0.975266, 1.88216e-05, 1.91884e-19, 0.260783
 462, 97.0007, 0.97517, 1.31783e-05, 2.37342e-19, 0.247949
 468, 98.0007, 0.975105, 8.85397e-06, 2.93234e-19, 0.23812
 474, 99.0007, 0.975062, 5.68824e-06, 3.61875e-19, 0.230929
 480, 100.001, 0.975035, 3.48129e-06, 4.46082e-19, 0.225917
 486, 101.001, 0.975018, 2.02144e-06, 5.49269e-19, 0.222604
 492, 102.001, 0.975009, 1.10874e-06, 6.75574e-19, 0.220533
 498, 103.001, 0.975004, 5.71736e-07, 8.3001e-19, 0.219315
 504, 104.001, 0.975002, 2.75767e-07, 1.01864e-18, 0.218643
 510, 105.001, 0.975001, 1.23733e-07, 1.24878e-18, 0.218299
 516, 106.001, 0.975, 5.13397e-08, 1.52927e-18, 0.218135
 522, 107.001, 0.975, 1.95741e-08, 1.87077e-18, 0.218063
 528, 108.001, 0.975, 6.81075e-09, 2.28611e-18, 0.218034
 534, 109.001, 0.975, 2.1468e-09, 2.79073e-18, 0.218023
 540, 110.001, 0.975, 6.08177e-10, 3.40319e-18, 0.21802
 546, 111.001, 0.975, 1.53537e-10, 4.14578e-18, 0.218019
 552, 112.001, 0.975, 3.42265e-11, 5.04524e-18, 0.218018
 558, 113.001, 0.975, 6.67137e-12, 6.13359e-18, 0.218018
 564, 114.001, 0.975, 1.12509e-12, 7.4492e-18, 0.218018
 570, 115.001, 0.975, 1.62315e-13, 9.03795e-18, 0.218018
 576, 116.001, 0.975, 1.97906e-14, 1.09547e-17, 0.218018
 582, 117.001, 0.975, 2.01293e-15, 1.32648e-17, 0.218018
 588, 118.001, 0.975, 1.68423e-16, 1.60463e-17, 0.218018
 594, 119.001, 0.975, 1.14208e-17, 1.93923e-17, 0.218018
 600, 120.001, 0.975, 6.18162e-19, 2.34134e-17, 0.218018
 606, 121.001, 0.975, 2.6887e-20, 2.82413e-17, 0.218018
 612, 122.001, 0.975, 1.70504e-21, 3.40324e-17, 0.218018
 618, 123.001, 0.975, 1.04535e-21, 4.09725e-17, 0.218018
 624, 124.001, 0.975, 1.23243e-21, 4.92817e-17, 0.218018
 630, 125.001, 0.975, 1.48053e-21, 5.92211e-17, 0.218018
 636, 126.001, 0.975, 1.77749e-21, 7.10996e-17, 0.218018
 642, 127.001, 0.975, 2.13207e-21, 8.52827e-17, 0.218018
 648, 128.001, 0.975, 2.55506e-21, 1.02202e-16, 0.218018
 654, 129.001, 0.975, 3.05922e-21, 1.22369e-16, 0.218018
 660, 130.001, 0.975, 3.65958e-21, 1.46383e-16, 0.218018
 666, 131.001, 0.975, 4.37389e-21, 1.74955e-16, 0.218018
 672, 132.001, 0.975, 5.22301e-21, 2.08921e-16, 0.218018
 678, 133.001, 0.975, 6.23154e-21, 2.49262e-16, 0.218018
 684, 134.001, 0.975, 7.42837e-21, 2.97135e-16, 0.218018
 690, 135.001, 0.975, 8.84743e-21, 3.53897e-16, 0.218018
 696, 136.001, 0.975, 1.05286e-20, 4.21143e-16, 0.218018
 702, 137.001, 0.975, 1.25186e-20, 5.00742e-16, 0.218018
 708, 138.001, 0.975, 1.48721e-20, 5.94885e-16, 0.218018
 714, 139.001, 0.975, 1.76534e-20, 7.06136e-16, 0.218018
 720, 140.001, 0.975, 2.09374e-20, 8.37497e-16, 0.218018
 726, 141.001, 0.975, 2.48119e-20, 9.92477e-16, 0.218018
 732, 142.001, 0.975, 2.93794e-20, 1.17518e-15, 0.218018
 738, 143.001, 0.975, 3.47594e-20, 1.39038e-15, 0.218018
 744, 144.001, 0.975, 4.10914e-20, 1.64366e-15, 0.218018
 750, 145.001, 0.975, 4.85381e-20, 1.94152e-15, 0.218018
 756, 146.001, 0.975, 5.72888e-20, 2.29155e-15, 0.218018
 762, 147.001, 0.975, 6.75637e-20, 2.70255e-15, 0.218018
 768, 148.001, 0.975, 7.9619e-20, 3.18476e-15, 0.218018
 774, 149.001, 0.975, 9.37524e-20, 3.7501e-15, 0.218018
 780, 150.001, 0.975, 1.10309e-19, 4.41238e-15, 0.218018
 786, 151.001, 0.975, 1.29691e-19, 5.18764e-15, 0.218018
 792, 152.001, 0.975, 1.52362e-19, 6.09448e-15, 0.218018
 798, 153.001, 0.975, 1.78861e-19, 7.15443e-15, 0.218018
 804, 154.001, 0.975, 2.0981e-19, 8.39242e-15, 0.218018
 810, 155.001, 0.975, 2.45932e-19, 9.83729e-15, 0.218018
 816, 156.001, 0.975, 2.8806e-19, 1.15224e-14, 0.218018
 822, 157.001, 0.975, 3.37155e-19, 1.34862e-14, 0.218018
 828, 158.001, 0.975, 3.94331e-19, 1.57732e-14, 0.218018
 834, 159.001, 0.975, 4.60868e-19, 1.84347e-14, 0.218018
 840, 160.001, 0.975, 5.38244e-19, 2.15298e-14, 0.218018
 846, 161.001, 0.975, 6.28162e-19, 2.51265e-14, 0.218018
 852, 162.001, 0.975, 7.32582e-19, 2.93033e-14, 0.218018
 858, 163.001, 0.975, 8.53756e-19, 3.41503e-14, 0.218018
 864, 164.001, 0.975, 9.94278e-19, 3.97711e-14, 0.218018
 870, 165.001, 0.975, 1.15712e-18, 4.62849e-14, 0.218018
 876, 166.001, 0.975, 1.34571e-18, 5.38284e-14, 0.218018
 882, 167.001, 0.975, 1.56396e-18, 6.25583e-14, 0.218018
 888, 168.001, 0.975, 1.81636e-18, 7.26546e-14, 0.218018
 894, 169.001, 0.975, 2.10808e-18, 8.43232e-14, 0.218018
 900, 170.001, 0.975, 2.445e-18, 9.78e-14, 0.218018
 906, 171.001, 0.975, 2.83388e-18, 1.13355e-13, 0.218018
 912, 172.001, 0.975, 3.28243e-18, 1.31297e-13, 0.218018
 918, 173.001, 0.975, 3.79947e-18, 1.51979e-13, 0.218018
 924, 174.001, 0.975, 4.39508e-18, 1.75803e-13, 0.218018
 930, 175.001, 0.975, 5.08076e-18, 2.0323e-13, 0.218018
 936, 176.001, 0.975, 5.86961e-18, 2.34785e-13, 0.218018
 942, 177.001, 0.975, 6.77661e-18, 2.71064e-13, 0.218018
 948, 178.001, 0.975, 7.81877e-18, 3.12751e-13, 0.218018
 954, 179.001, 0.975, 9.0155e-18, 3.6062e-13, 0.218018
 960, 180.001, 0.975, 1.03889e-17, 4.15555e-13, 0.218018
 966, 181.001, 0.975, 1.1964e-17, 4.78559e-13, 0.218018
 972, 182.001, 0.975, 1.37693e-17, 5.50773e-13, 0.218018
 978, 183.001, 0.975, 1.58374e-17, 6.33495e-13, 0.218018
 984, 184.001, 0.975, 1.82049e-17, 7.28194e-13, 0.218018
 990, 185.001, 0.975, 2.09135e-17, 8.36541e-13, 0.218018
 996, 186.001, 0.975, 2.40107e-17, 9.60429e-13, 0.218018
 1002, 187.001, 0.975, 2.755e-17, 1.102e-12, 0.218018
 1008, 188.001, 0.975, 3.15922e-17, 1.26369e-12, 0.218018
 1014, 189.001, 0.975, 3.6206e-17, 1.44824e-12, 0.218018
 1020, 190.001, 0.975, 4.14692e-17, 1.65877e-12, 0.218018
 1026, 191.001, 0.975, 4.74698e-17, 1.89879e-12, 0.218018
 1032, 192.001, 0.975, 5.4307e-17, 2.17228e-12, 0.218018
 1038, 193.001, 0.975, 6.20932e-17, 2.48373e-12, 0.218018
 1044, 194.001, 0.975, 7.0955e-17, 2.8382e-12, 0.218018
 1050, 195.001, 0.975, 8.10353e-17, 3.24141e-12, 0.218018
 1056, 196.001, 0.975, 9.24953e-17, 3.69981e-12, 0.218018
 1062, 197.001, 0.975, 1.05517e-16, 4.22066e-12, 0.218018
 1068, 198.001, 0.975, 1.20304e-16, 4.81215e-12, 0.218018
 1074, 199.001, 0.975, 1.37087e-16, 5.48347e-12, 0.218018
 1080, 200.001, 0.975, 1.56125e-16, 6.24501e-12, 0.218018
 1086, 201.001, 0.975, 1.7771e-16, 7.1084e-12, 0.218018
 1092, 202.001, 0.975, 2.02169e-16, 8.08676e-12, 0.218018
 1098, 203.001, 0.975, 2.2987e-16, 9.19478e-12, 0.218018
 1104, 204.001, 0.975, 2.61225e-16, 1.0449e-11, 0.218018
 1110, 205.001, 0.975, 2.96699e-16, 1.18679e-11, 0.218018
 1116, 206.001, 0.975, 3.36811e-16, 1.34724e-11, 0.218018
 1122, 207.001, 0.975, 3.82144e-16, 1.52857e-11, 0.218018
 1128, 208.001, 0.975, 4.33351e-16, 1.7334e-11, 0.218018
 1134, 209.001, 0.975, 4.91163e-16, 1.96465e-11, 0.218018
 1140, 210.001, 0.975, 5.564e-16, 2.2256e-11, 0.218018
 1146, 211.001, 0.975, 6.29977e-16, 2.51991e-11, 0.218018
 1152, 212.001, 0.975, 7.12918e-16, 2.85167e-11, 0.218018
 1158, 213.001, 0.975, 8.06369e-16, 3.22547e-11, 0.218018
 1164, 214.001, 0.975, 9.11608e-16, 3.64643e-11, 0.218018
 1170, 215.001, 0.975, 1.03006e-15, 4.12026e-11, 0.218018
 1176, 216.001, 0.975, 1.16333e-15, 4.65333e-11, 0.218018
 1182, 217.001, 0.975, 1.31319e-15, 5.25276e-11, 0.218018
 1188, 218.001, 0.975, 1.48162e-15, 5.92648e-11, 0.218018
 1194, 219.001, 0.975, 1.67083e-15, 6.68333e-11, 0.218018
 1200, 220.001, 0.975, 1.88329e-15, 7.53317e-11, 0.218018
 1206, 221.001, 0.975, 2.12174e-15, 8.48696e-11, 0.218018
 1212, 222.001, 0.975, 2.38923e-15, 9.5569e-11, 0.218018
 1218, 223.001, 0.975, 2.68915e-15, 1.07566e-10, 0.218018
 1224, 224.001, 0.975, 3.02528e-15, 1.21011e-10, 0.218018
 1230, 225.001, 0.975, 3.40181e-15, 1.36073e-10, 0.218018
 1236, 226.001, 0.975, 3.82342e-15, 1.52937e-10, 0.218018
 1242, 227.001, 0.975, 4.29527e-15, 1.71811e-10, 0.218018
 1248, 228.001, 0.975, 4.82311e-15, 1.92924e-10, 0.218018
 1254, 229.001, 0.975, 5.41331e-15, 2.16532e-10, 0.218018
 1260, 230.001, 0.975, 6.07295e-15, 2.42918e-10, 0.218018
 1266, 231.001, 0.975, 6.80986e-15, 2.72395e-10, 0.218018
 1272, 232.001, 0.975, 7.63274e-15, 3.0531e-10, 0.218018
 1278, 233.001, 0.975, 8.55119e-15, 3.42048e-10, 0.218018
 1284, 234.001, 0.975, 9.57586e-15, 3.83034e-10, 0.218018
 1290, 235.001, 0.975, 1.07185e-14, 4.28742e-10, 0.218018
 1296, 236.001, 0.975, 1.19923e-14, 4.79691e-10, 0.218018
 1302, 237.001, 0.975, 1.34115e-14, 5.36458e-10, 0.218018
 1308, 238.001, 0.975, 1.4992e-14, 5.99681e-10, 0.218018
 1314, 239.001, 0.975, 1.67516e-14, 6.70064e-10, 0.218018
 1320, 240.001, 0.975, 1.87096e-14, 7.48383e-10, 0.218018
 1326, 241.001, 0.975, 2.08874e-14, 8.35497e-10, 0.218018
 1332, 242.001, 0.975, 2.33088e-14, 9.32352e-10, 0.218018
 1338, 243.001, 0.975, 2.59998e-14, 1.03999e-09, 0.218018
 1344, 244.001, 0.975, 2.89893e-14, 1.15957e-09, 0.218018
 1350, 245.001, 0.975, 3.23089e-14, 1.29236e-09, 0.218018
 1356, 246.001, 0.975, 3.59936e-14, 1.43975e-09, 0.218018
 1362, 247.001, 0.975, 4.00819e-14, 1.60328e-09, 0.218018
 1368, 248.001, 0.975, 4.46162e-14, 1.78465e-09, 0.218018
 1374, 249.001, 0.975, 4.9643e-14, 1.98572e-09, 0.218018
 1380, 250.001, 0.975, 5.52136e-14, 2.20854e-09, 0.218018
 1386, 251.001, 0.975, 6.13844e-14, 2.45538e-09, 0.218018
 1392, 252.001, 0.975, 6.82173e-14, 2.72869e-09, 0.218018
 1398, 253.001, 0.975, 7.57804e-14, 3.03122e-09, 0.218018
 1404, 254.001, 0.975, 8.41485e-14, 3.36594e-09, 0.218018
 1410, 255.001, 0.975, 9.34035e-14, 3.73614e-09, 0.218018
 1416, 256.001, 0.975, 1.03636e-13, 4.14542e-09, 0.218018
 1422, 257.001, 0.975, 1.14943e-13, 4.59774e-09, 0.218018
 1428, 258.001, 0.975, 1.27435e-13, 5.09742e-09, 0.218018
 1434, 259.001, 0.975, 1.4123e-13, 5.64921e-09, 0.218018
 1440, 260.001, 0.975, 1.56458e-13, 6.25832e-09, 0.218018
 1446, 261.001, 0.975, 1.73261e-13, 6.93045e-09, 0.218018
 1452, 262.001, 0.975, 1.91796e-13, 7.67184e-09, 0.218018
 1458, 263.001, 0.975, 2.12233e-13, 8.48932e-09, 0.218018
 1464, 264.001, 0.975, 2.34759e-13, 9.39037e-09, 0.218018
 1470, 265.001, 0.975, 2.59579e-13, 1.03832e-08, 0.218018
 1476, 266.001, 0.975, 2.86916e-13, 1.14766e-08, 0.218018
 1482, 267.001, 0.975, 3.17014e-13, 1.26806e-08, 0.218018
 1488, 268.001, 0.975, 3.5014e-13, 1.40056e-08, 0.218018
 1494, 269.001, 0.975, 3.86587e-13, 1.54635e-08, 0.218018
 1500, 270.001, 0.975, 4.26671e-13, 1.70668e-08, 0.218018
 1506, 271.001, 0.975, 4.70741e-13, 1.88296e-08, 0.218018
 1512, 272.001, 0.975, 5.19175e-13, 2.0767e-08, 0.218018
 1518, 273.001, 0.975, 5.72388e-13, 2.28955e-08, 0.218018
 1524, 274.001, 0.975, 6.30829e-13, 2.52332e-08, 0.218018
 1530, 275.001, 0.975, 6.94991e-13, 2.77997e-08, 0.218018
 1536, 276.001, 0.975, 7.65409e-13, 3.06164e-08, 0.218018
 1542, 277.001, 0.975, 8.42666e-13, 3.37066e-08, 0.218018
 1548, 278.001, 0.975, 9.27397e-13, 3.70959e-08, 0.218018
 1554, 279.001, 0.975, 1.02029e-12, 4.08118e-08, 0.218018
 1560, 280.001, 0.975, 1.12211e-12, 4.48844e-08, 0.218018
 1566, 281.001, 0.975, 1.23366e-12, 4.93464e-08, 0.218018
 1572, 282.001, 0.975, 1.35584e-12, 5.42335e-08, 0.218018
 1578, 283.001, 0.975, 1.48961e-12, 5.95844e-08, 0.218018
 1584, 284.001, 0.975, 1.63603e-12, 6.54412e-08, 0.218018
 1590, 285.001, 0.975, 1.79624e-12, 7.18494e-08, 0.218018
 1596, 286.001, 0.975, 1.97147e-12, 7.88588e-08, 0.218018
 1602, 287.001, 0.975, 2.16308e-12, 8.65233e-08, 0.218018
 1608, 288.001, 0.975, 2.37253e-12, 9.49013e-08, 0.218018
 1614, 289.001, 0.975, 2.60141e-12, 1.04056e-07, 0.218018
 1620, 290.001, 0.975, 2.85143e-12, 1.14057e-07, 0.218018
 1626, 291.001, 0.975, 3.12447e-12, 1.24979e-07, 0.218018
 1632, 292.001, 0.975, 3.42254e-12, 1.36902e-07, 0.218018
 1638, 293.001, 0.975, 3.74784e-12, 1.49914e-07, 0.218018
 1644, 294.001, 0.975, 4.10275e-12, 1.6411e-07, 0.218018
 1650, 295.001, 0.975, 4.48983e-12, 1.79593e-07, 0.218018
 1656, 296.001, 0.975, 4.91188e-12, 1.96475e-07, 0.218018
 1662, 297.001, 0.975, 5.37191e-12, 2.14876e-07, 0.218018
 1668, 298.001, 0.975, 5.87318e-12, 2.34927e-07, 0.218018
 1674, 299.001, 0.975, 6.41923e-12, 2.56769e-07, 0.218018
 1680, 300.001, 0.975, 7.01387e-12, 2.80555e-07, 0.218018
 1686, 301.001, 0.975, 7.66122e-12, 3.06449e-07, 0.218018
 1692, 302.001, 0.975, 8.36576e-12, 3.3463e-07, 0.218018
 1698, 303.001, 0.975, 9.13229e-12, 3.65292e-07, 0.218018
 1704, 304.001, 0.975, 9.96604e-12, 3.98642e-07, 0.218018
 1710, 305.001, 0.975, 1.08726e-11, 4.34904e-07, 0.218018
 1716, 306.001, 0.975, 1.18581e-11, 4.74324e-07, 0.218018
 1722, 307.001, 0.975, 1.2929e-11, 5.17161e-07, 0.218018
 1728, 308.001, 0.975, 1.40925e-11, 5.63699e-07, 0.218018
 1734, 309.001, 0.975, 1.53561e-11, 6.14243e-07, 0.218018
 1740, 310.001, 0.975, 1.67281e-11, 6.69123e-07, 0.218018
 1746, 311.001, 0.975, 1.82173e-11, 7.28691e-07, 0.218018
 1752, 312.001, 0.975, 1.98333e-11, 7.93332e-07, 0.218018
 1758, 313.001, 0.975, 2.15864e-11, 8.63456e-07, 0.218018
 1764, 314.001, 0.975, 2.34877e-11, 9.39508e-07, 0.218018
 1770, 315.001, 0.975, 2.55491e-11, 1.02197e-06, 0.218018
 1776, 316.001, 0.975, 2.77835e-11, 1.11134e-06, 0.218018
 1782, 317.001, 0.975, 3.02048e-11, 1.20819e-06, 0.218018
 1788, 318.001, 0.975, 3.28277e-11, 1.31311e-06, 0.218018
 1794, 319.001, 0.975, 3.56684e-11, 1.42674e-06, 0.218018
 1800, 320.001, 0.975, 3.87441e-11, 1.54976e-06, 0.218018
 1806, 321.001, 0.975, 4.20733e-11, 1.68293e-06, 0.218018
 1812, 322.001, 0.975, 4.56758e-11, 1.82703e-06, 0.218018
 1818, 323.001, 0.975, 4.95732e-11, 1.98293e-06, 0.218018
 1824, 324.001, 0.975, 5.37884e-11, 2.15154e-06, 0.218018
 1830, 325.001, 0.975, 5.83461e-11, 2.33384e-06, 0.218018
 1836, 326.001, 0.975, 6.32728e-11, 2.53091e-06, 0.218018
 1842, 327.001, 0.975, 6.8597e-11, 2.74388e-06, 0.218018
 1848, 328.001, 0.975, 7.43491e-11, 2.97397e-06, 0.218018
 1854, 329.001, 0.975, 8.05621e-11, 3.22248e-06, 0.218018
 1860, 330.001, 0.975, 8.72711e-11, 3.49084e-06, 0.218018
 1866, 331.001, 0.975, 9.45137e-11, 3.78055e-06, 0.218018
 1872, 332.001, 0.975, 1.0233e-10, 4.09321e-06, 0.218018
 1878, 333.001, 0.975, 1.10764e-10, 4.43058e-06, 0.218018
 1884, 334.001, 0.975, 1.19862e-10, 4.7945e-06, 0.218018
 1890, 335.001, 0.975, 1.29674e-10, 5.18697e-06, 0.218018
 1896, 336.001, 0.975, 1.40253e-10, 5.61011e-06, 0.218018
 1902, 337.001, 0.975, 1.51655e-10, 6.06621e-06, 0.218018
 1908, 338.001, 0.975, 1.63943e-10, 6.55771e-06, 0.218018
 1914, 339.001, 0.975, 1.77181e-10, 7.08724e-06, 0.218018
 1920, 340.001, 0.975, 1.91439e-10, 7.65758e-06, 0.218018
 1926, 341.001, 0.975, 2.06793e-10, 8.27174e-06, 0.218018
 1932, 342.001, 0.975, 2.23323e-10, 8.93291e-06, 0.218018
 1938, 343.001, 0.975, 2.41113e-10, 9.64452e-06, 0.218018
 1944, 344.001, 0.975, 2.60256e-10, 1.04102e-05, 0.218018
 1950, 345.001, 0.975, 2.80849e-10, 1.1234e-05, 0.218018
 1956, 346.001, 0.975, 3.02997e-10, 1.21199e-05, 0.218018
 1962, 347.001, 0.975, 3.26812e-10, 1.30725e-05, 0.218018
 1968, 348.001, 0.975, 3.52413e-10, 1.40965e-05, 0.218018
 1974, 349.001, 0.975, 3.79927e-10, 1.51971e-05, 0.218018
 1980, 350.001, 0.975, 4.0949e-10, 1.63796e-05, 0.218019
 1986, 351.001, 0.975, 4.41248e-10, 1.76499e-05, 0.218019
 1992, 352.001, 0.975, 4.75355e-10, 1.90142e-05, 0.218018
 1998, 353.001, 0.975, 5.11976e-10, 2.04791e-05, 0.218019
 2004, 354.001, 0.975, 5.51289e-10, 2.20516e-05, 0.218019
 2010, 355.001, 0.975, 5.9348e-10, 2.37392e-05, 0.218019
 2016, 356.001, 0.975, 6.38751e-10, 2.555e-05, 0.218019
 2022, 357.001, 0.975, 6.87315e-10, 2.74926e-05, 0.218019
 2028, 358.001, 0.975, 7.39399e-10, 2.95759e-05, 0.218019
 2034, 359.001, 0.975, 7.95246e-10, 3.18098e-05, 0.218019
 2040, 360.001, 0.975, 8.55114e-10, 3.42046e-05, 0.218019
 2046, 361.001, 0.975, 9.19279e-10, 3.67712e-05, 0.218019
 2052, 362.001, 0.975, 9.88034e-10, 3.95214e-05, 0.218019
 2058, 363.001, 0.975, 1.06169e-09, 4.24676e-05, 0.218019
 2064, 364.001, 0.975, 1.14058e-09, 4.56232e-05, 0.218019
 2070, 365.001, 0.975, 1.22506e-09, 4.90023e-05, 0.218019
 2076, 366.001, 0.975, 1.3155e-09, 5.26199e-05, 0.218019
 2082, 367.001, 0.975, 1.4123e-09, 5.64919e-05, 0.218019
 2088, 368.001, 0.975, 1.51589e-09, 6.06355e-05, 0.218019
 2094, 369.001, 0.975, 1.62671e-09, 6.50686e-05, 0.218019
 2100, 370.001, 0.975, 1.74526e-09, 6.98105e-05, 0.218019
 2106, 371.001, 0.975, 1.87204e-09, 7.48817e-05, 0.218019
 2112, 372.001, 0.975, 2.00759e-09, 8.03037e-05, 0.218019
 2118, 373.001, 0.975, 2.15249e-09, 8.60997e-05, 0.218019
 2124, 374.001, 0.975, 2.30735e-09, 9.22942e-05, 0.218019
 2130, 375.001, 0.975, 2.47283e-09, 9.89131e-05, 0.218019
 2136, 376.001, 0.975, 2.6496e-09, 0.000105984, 0.218019
 2142, 377.001, 0.975, 2.83841e-09, 0.000113536, 0.218019
 2148, 378.001, 0.975, 3.04003e-09, 0.000121601, 0.218019
 2154, 379.001, 0.975, 3.25529e-09, 0.000130212, 0.218019
 2160, 380.001, 0.975, 3.48506e-09, 0.000139402, 0.218019
 2166, 381.001, 0.975, 3.73027e-09, 0.000149211, 0.218019
 2172, 382.001, 0.975, 3.9919e-09, 0.000159676, 0.218019
 2178, 383.001, 0.975, 4.271e-09, 0.00017084, 0.218019
 2184, 384.001, 0.975, 4.56867e-09, 0.000182747, 0.21802
 2190, 385.001, 0.975, 4.8861e-09, 0.000195444, 0.21802
 2196, 386.001, 0.975, 5.2245e-09, 0.00020898, 0.21802
 2202, 387.001, 0.975, 5.58522e-09, 0.000223409, 0.21802
 2208, 388.001, 0.974999, 5.96963e-09, 0.000238785, 0.21802
 2214, 389.001, 0.974999, 6.37922e-09, 0.000255169, 0.21802
 2220, 390.001, 0.974999, 6.81555e-09, 0.000272622, 0.21802
 2226, 391.001, 0.974999, 7.28027e-09, 0.000291211, 0.21802
 2232, 392.001, 0.974999, 7.77513e-09, 0.000311005, 0.21802
 2238, 393.001, 0.974999, 8.302e-09, 0.00033208, 0.21802
 2244, 394.001, 0.974999, 8.86282e-09, 0.000354513, 0.218021
 2250, 395.001, 0.974999, 9.45968e-09, 0.000378387, 0.218021
 2256, 396.001, 0.974999, 1.00948e-08, 0.000403791, 0.218021
 2262, 397.001, 0.974999, 1.07704e-08, 0.000430816, 0.218021
 2268, 398.001, 0.974999, 1.1489e-08, 0.000459561, 0.218021
 2274, 399.001, 0.974999, 1.22533e-08, 0.000490131, 0.218021
 2280, 400.001, 0.974999, 1.30658e-08, 0.000522633, 0.218022
 2286, 401.001, 0.974999, 1.39296e-08, 0.000557185, 0.218022
 2292, 402.001, 0.974999, 1.48477e-08, 0.000593908, 0.218022
 2298, 403.001, 0.974999, 1.58233e-08, 0.000632933, 0.218022
 2304, 404.001, 0.974998, 1.68599e-08, 0.000674394, 0.218022
 2310, 405.001, 0.974998, 1.79609e-08, 0.000718438, 0.218023
 2316, 406.001, 0.974998, 1.91304e-08, 0.000765215, 0.218023
 2322, 407.001, 0.974998, 2.03722e-08, 0.000814886, 0.218023
 2328, 408.001, 0.974998, 2.16905e-08, 0.000867622, 0.218024
 2334, 409.001, 0.974998, 2.309e-08, 0.0009236, 0.218024
 2340, 410.001, 0.974998, 2.45753e-08, 0.000983011, 0.218024
 2346, 411.001, 0.974998, 2.61513e-08, 0.00104605, 0.218025
 2352, 412.001, 0.974997, 2.78233e-08, 0.00111293, 0.218025
 2358, 413.001, 0.974997, 2.9597e-08, 0.00118388, 0.218025
 2364, 414.001, 0.974997, 3.1478e-08, 0.00125912, 0.218026
 2370, 415.001, 0.974997, 3.34725e-08, 0.0013389, 0.218026
 2376, 416.001, 0.974997, 3.55871e-08, 0.00142348, 0.218027
 2382, 417.001, 0.974996, 3.78286e-08, 0.00151314, 0.218027
 2388, 418.001, 0.974996, 4.02041e-08, 0.00160816, 0.218028
 2394, 419.001, 0.974996, 4.27213e-08, 0.00170885, 0.218029
 2400, 420.001, 0.974996, 4.53882e-08, 0.00181553, 0.218029
 2406, 421.001, 0.974995, 4.82131e-08, 0.00192852, 0.21803
 2412, 422.001, 0.974995, 5.12049e-08, 0.0020482, 0.218031
 2418, 423.001, 0.974995, 5.4373e-08, 0.00217492, 0.218031
 2424, 424.001, 0.974994, 5.77271e-08, 0.00230908, 0.218032
 2430, 425.001, 0.974994, 6.12777e-08, 0.00245111, 0.218033
 2436, 426.001, 0.974994, 6.50355e-08, 0.00260142, 0.218034
 2442, 427.001, 0.974993, 6.9012e-08, 0.00276048, 0.218035
 2448, 428.001, 0.974993, 7.32193e-08, 0.00292877, 0.218036
 2454, 429.001, 0.974992, 7.76699e-08, 0.0031068, 0.218037
 2460, 430.001, 0.974992, 8.23773e-08, 0.00329509, 0.218038
 2466, 431.001, 0.974991, 8.73553e-08, 0.00349421, 0.218039
 2472, 432.001, 0.974991, 9.26188e-08, 0.00370475, 0.218041
 2478, 433.001, 0.97499, 9.81832e-08, 0.00392733, 0.218042
 2484, 434.001, 0.97499, 1.04065e-07, 0.00416258, 0.218043
 2490, 435.001, 0.974989, 1.1028e-07, 0.00441121, 0.218045
 2496, 436.001, 0.974988, 1.16848e-07, 0.00467392, 0.218046
 2502, 437.001, 0.974988, 1.23787e-07, 0.00495147, 0.218048
 2508, 438.001, 0.974987, 1.31116e-07, 0.00524465, 0.21805
 2514, 439.001, 0.974986, 1.38857e-07, 0.00555429, 0.218051
 2520, 440.001, 0.974985, 1.47032e-07, 0.00588127, 0.218053
 2526, 441.001, 0.974984, 1.55662e-07, 0.00622649, 0.218055
 2532, 442.001, 0.974983, 1.64773e-07, 0.00659093, 0.218058
 2538, 443.001, 0.974982, 1.7439e-07, 0.0069756, 0.21806
 2544, 444.001, 0.974981, 1.84538e-07, 0.00738154, 0.218062
 2550, 445.001, 0.97498, 1.95247e-07, 0.00780987, 0.218065
 2556, 446.001, 0.974979, 2.06544e-07, 0.00826177, 0.218068
 2562, 447.001, 0.974978, 2.18461e-07, 0.00873845, 0.21807
 2568, 448.001, 0.974976, 2.3103e-07, 0.00924119, 0.218073
 2574, 449.001, 0.974975, 2.44283e-07, 0.00977133, 0.218076
 2580, 450.001, 0.974973, 2.58258e-07, 0.0103303, 0.21808
 2586, 451.001, 0.974972, 2.72989e-07, 0.0109196, 0.218083
 2592, 452.001, 0.97497, 2.88517e-07, 0.0115407, 0.218087
 2598, 453.001, 0.974968, 3.04881e-07, 0.0121953, 0.218091
 2604, 454.001, 0.974966, 3.22125e-07, 0.012885, 0.218095
 2610, 455.001, 0.974965, 3.40293e-07, 0.0136117, 0.218099
 2616, 456.001, 0.974962, 3.59431e-07, 0.0143772, 0.218104
 2622, 457.001, 0.97496, 3.79588e-07, 0.0151835, 0.218108
 2628, 458.001, 0.974958, 4.00816e-07, 0.0160326, 0.218113
 2634, 459.001, 0.974955, 4.23168e-07, 0.0169267, 0.218119
 2640, 460.001, 0.974953, 4.467e-07, 0.017868, 0.218124
 2646, 461.001, 0.97495, 4.71472e-07, 0.0188589, 0.21813
 2652, 462.001, 0.974947, 4.97544e-07, 0.0199018, 0.218136
 2658, 463.001, 0.974944, 5.24981e-07, 0.0209992, 0.218143
 2664, 464.001, 0.974941, 5.5385e-07, 0.022154, 0.218149
 2670, 465.001, 0.974937, 5.84221e-07, 0.0233689, 0.218157
 2676, 466.001, 0.974934, 6.1617e-07, 0.0246468, 0.218164
 2682, 467.001, 0.97493, 6.49771e-07, 0.0259908, 0.218172
 2688, 468.001, 0.974926, 6.85106e-07, 0.0274043, 0.21818
 2694, 469.001, 0.974922, 7.2226e-07, 0.0288904, 0.218189
 2700, 470.001, 0.974917, 7.6132e-07, 0.0304528, 0.218198
 2706, 471.001, 0.974913, 8.02379e-07, 0.0320952, 0.218208
 2712, 472.001, 0.974908, 8.45533e-07, 0.0338213, 0.218218
 2718, 473.001, 0.974902, 8.90882e-07, 0.0356353, 0.218229
 2724, 474.001, 0.974897, 9.38532e-07, 0.0375413, 0.21824
 2730, 475.001, 0.974891, 9.88592e-07, 0.0395437, 0.218252
 2736, 476.001, 0.974885, 1.04118e-06, 0.0416471, 0.218264
 2742, 477.001, 0.974879, 1.09641e-06, 0.0438563, 0.218277
 2748, 478.001, 0.974872, 1.15441e-06, 0.0461764, 0.218291
 2754, 479.001, 0.974865, 1.21531e-06, 0.0486125, 0.218305
 2760, 480.001, 0.974857, 1.27925e-06, 0.0511701, 0.21832
 2766, 481.001, 0.974849, 1.34637e-06, 0.0538549, 0.218336
 2772, 482.001, 0.974841, 1.41682e-06, 0.0566729, 0.218352
 2778, 483.001, 0.974832, 1.49076e-06, 0.0596302, 0.218369
 2784, 484.001, 0.974823, 1.56834e-06, 0.0627334, 0.218388
 2790, 485.001, 0.974814, 1.64973e-06, 0.0659892, 0.218406
 2796, 486.001, 0.974803, 1.73512e-06, 0.0694047, 0.218426
 2802, 487.001, 0.974793, 1.82468e-06, 0.0729873, 0.218447
 2808, 488.001, 0.974782, 1.91861e-06, 0.0767445, 0.218469
 2814, 489.001, 0.97477, 2.01711e-06, 0.0806845, 0.218492
 2820, 490.001, 0.974757, 2.12039e-06, 0.0848156, 0.218517
 2826, 491.001, 0.974744, 2.22866e-06, 0.0891465, 0.218542
 2832, 492.001, 0.974731, 2.34215e-06, 0.0936862, 0.218568
 2838, 493.001, 0.974716, 2.46111e-06, 0.0984442, 0.218596
 2844, 494.001, 0.974701, 2.58576e-06, 0.10343, 0.218625
 2850, 495.001, 0.974685, 2.71638e-06, 0.108655, 0.218656
 2856, 496.001, 0.974668, 2.85323e-06, 0.114129, 0.218687
 2862, 497.001, 0.974651, 2.99658e-06, 0.119863, 0.218721
 2868, 498.001, 0.974632, 3.14674e-06, 0.125869, 0.218756
 2874, 499.001, 0.974613, 3.30399e-06, 0.13216, 0.218793
 2880, 500.001, 0.974593, 3.46867e-06, 0.138747, 0.218831
 2886, 501.001, 0.974571, 3.64108e-06, 0.145643, 0.218871
 2892, 502.001, 0.974549, 3.82159e-06, 0.152864, 0.218913
 2898, 503.001, 0.974526, 4.01054e-06, 0.160421, 0.218957
 2904, 504.001, 0.974501, 4.2083e-06, 0.168332, 0.219003
 2910, 505.001, 0.974475, 4.41526e-06, 0.17661, 0.219051
 2916, 506.001, 0.974448, 4.63181e-06, 0.185273, 0.219101
 2922, 507.001, 0.974419, 4.85839e-06, 0.194336, 0.219154
 2928, 508.001, 0.97439, 5.09542e-06, 0.203817, 0.219209
 2934, 509.001, 0.974358, 5.34335e-06, 0.213734, 0.219267
 2940, 510.001, 0.974325, 5.60265e-06, 0.224106, 0.219327
 2946, 511.001, 0.974291, 5.87381e-06, 0.234953, 0.21939
 2952, 512.001, 0.974255, 6.15735e-06, 0.246294, 0.219455
 2958, 513.001, 0.974217, 6.45378e-06, 0.258151, 0.219524
 2964, 514.001, 0.974177, 6.76366e-06, 0.270546, 0.219596
 2970, 515.001, 0.974136, 7.08755e-06, 0.283502, 0.219671
 2976, 516.001, 0.974092, 7.42606e-06, 0.297042, 0.219749
 2982, 517.001, 0.974047, 7.77979e-06, 0.311192, 0.219831
 2988, 518.001, 0.973999, 8.1494e-06, 0.325976, 0.219917
 2994, 519.001, 0.973949, 8.53553e-06, 0.341421, 0.220006
 3000, 520.001, 0.973897, 8.93889e-06, 0.357556, 0.2201
 3006, 521.001, 0.973842, 9.3602e-06, 0.374408, 0.220197
 3012, 522.001, 0.973784, 9.80019e-06, 0.392008, 0.220299
 3018, 523.001, 0.973724, 1.02596e-05, 0.410386, 0.220405
 3024, 524.001, 0.973661, 1.07394e-05, 0.429575, 0.220516
 3030, 525.001, 0.973595, 1.12402e-05, 0.449608, 0.220631
 3036, 526.001, 0.973526, 1.1763e-05, 0.470519, 0.220752
 3042, 527.001, 0.973454, 1.23086e-05, 0.492345, 0.220878
 3048, 528.001, 0.973378, 1.28781e-05, 0.515124, 0.221009
 3054, 529.001, 0.973299, 1.34723e-05, 0.538892, 0.221146
 3060, 530.001, 0.973217, 1.40923e-05, 0.563692, 0.221289
 3066, 531.001, 0.97313, 1.47391e-05, 0.589564, 0.221438
 3072, 532.001, 0.97304, 1.54138e-05, 0.616551, 0.221594
 3078, 533.001, 0.972945, 1.61175e-05, 0.644698, 0.221756
 3084, 534.001, 0.972846, 1.68513e-05, 0.674053, 0.221925
 3090, 535.001, 0.972743, 1.76165e-05, 0.704662, 0.222101
 3096, 536.001, 0.972635, 1.84144e-05, 0.736576, 0.222284
 3102, 537.001, 0.972522, 1.92461e-05, 0.769846, 0.222476
 3108, 538.001, 0.972404, 2.01131e-05, 0.804525, 0.222675
 3114, 539.001, 0.97228, 2.10168e-05, 0.84067, 0.222883
 3120, 540.001, 0.972151, 2.19584e-05, 0.878338, 0.223099
 3126, 541.001, 0.972017, 2.29397e-05, 0.917587, 0.223324
 3132, 542.001, 0.971876, 2.3962e-05, 0.958481, 0.223559
 3138, 543.001, 0.971729, 2.5027e-05, 1.00108, 0.223803
 3144, 544.001, 0.971576, 2.61364e-05, 1.04545, 0.224058
 3150, 545.001, 0.971415, 2.72917e-05, 1.09167, 0.224323
 3156, 546.001, 0.971248, 2.84949e-05, 1.1398, 0.224599
 3162, 547.001, 0.971073, 2.97477e-05, 1.18991, 0.224886
 3168, 548.001, 0.970891, 3.10521e-05, 1.24208, 0.225184
 3174, 549.001, 0.970701, 3.24098e-05, 1.29639, 0.225495
 3180, 550.001, 0.970502, 3.38231e-05, 1.35292, 0.225819
 3186, 551.001, 0.970295, 3.5294e-05, 1.41176, 0.226155
 3192, 552.001, 0.970078, 3.68245e-05, 1.47298, 0.226505
 3198, 553.001, 0.969853, 3.84171e-05, 1.53668, 0.226869
 3204, 554.001, 0.969617, 4.00738e-05, 1.60295, 0.227248
 3210, 555.001, 0.969372, 4.17972e-05, 1.67189, 0.227641
 3216, 556.001, 0.969115, 4.35897e-05, 1.74359, 0.228051
 3222, 557.001, 0.968848, 4.54539e-05, 1.81815, 0.228476
 3228, 558.001, 0.96857, 4.73922e-05, 1.89569, 0.228918
 3234, 559.001, 0.968279, 4.94075e-05, 1.9763, 0.229378
 3240, 560.001, 0.967977, 5.15025e-05, 2.0601, 0.229855
 3246, 561.001, 0.967661, 5.368e-05, 2.1472, 0.230352
 3252, 562.001, 0.967332, 5.59431e-05, 2.23772, 0.230867
 3258, 563.001, 0.96699, 5.82948e-05, 2.33179, 0.231402
 3264, 564.001, 0.966633, 6.07382e-05, 2.42953, 0.231958
 3270, 565.001, 0.966261, 6.32766e-05, 2.53106, 0.232536
 3276, 566.001, 0.965873, 6.59132e-05, 2.63653, 0.233135
 3282, 567.001, 0.965469, 6.86516e-05, 2.74606, 0.233758
 3288, 568.001, 0.965049, 7.14952e-05, 2.85981, 0.234404
 3294, 569.001, 0.964611, 7.44478e-05, 2.97791, 0.235074
 3300, 570.001, 0.964155, 7.75129e-05, 3.10052, 0.23577
 3306, 571.001, 0.963681, 8.06945e-05, 3.22778, 0.236492
 3312, 572.001, 0.963187, 8.39965e-05, 3.35986, 0.237241
 3318, 573.001, 0.962673, 8.7423e-05, 3.49692, 0.238017
 3324, 574.001, 0.962137, 9.09782e-05, 3.63913, 0.238823
 3330, 575.001, 0.96158, 9.46662e-05, 3.78665, 0.239658
 3336, 576.001, 0.961001, 9.84916e-05, 3.93966, 0.240524
 3342, 577.001, 0.960398, 0.000102459, 4.09835, 0.241421
 3348, 578.001, 0.959771, 0.000106572, 4.26289, 0.242351
 3354, 579.001, 0.959119, 0.000110837, 4.43348, 0.243315
 3360, 580.001, 0.958441, 0.000115258, 4.61031, 0.244314
 3366, 581.001, 0.957736, 0.000119839, 4.79358, 0.245348
 3372, 582.001, 0.957002, 0.000124587, 4.98349, 0.246419
 3378, 583.001, 0.95624, 0.000129506, 5.18024, 0.247529
 3384, 584.001, 0.955448, 0.000134602, 5.38406, 0.248677
 3390, 585.001, 0.954624, 0.000139879, 5.59516, 0.249866
 3396, 586.001, 0.953769, 0.000145344, 5.81376, 0.251097
 3402, 587.001, 0.95288, 0.000151002, 6.04008, 0.25237
 3408, 588.001, 0.951956, 0.000156859, 6.27436, 0.253687
 3414, 589.001, 0.950997, 0.000162921, 6.51683, 0.25505
 3420, 590.001, 0.950001, 0.000169193, 6.76772, 0.256459
 3426, 591.001, 0.948966, 0.000175682, 7.02729, 0.257915
 3432, 592.001, 0.947892, 0.000182395, 7.29578, 0.259421
 3438, 593.001, 0.946777, 0.000189336, 7.57344, 0.260978
 3444, 594.001, 0.94562, 0.000196513, 7.86052, 0.262586
 3450, 595.001, 0.944418, 0.000203932, 8.15728, 0.264247
 3456, 596.001, 0.943172, 0.0002116, 8.46399, 0.265963
 3462, 597.001, 0.941879, 0.000219523, 8.7809, 0.267735
 3468, 598.001, 0.940537, 0.000227707, 9.10829, 0.269563
 3474, 599.001, 0.939146, 0.00023616, 9.44642, 0.271451
 3480, 600.001, 0.937702, 0.000244889, 9.79556, 0.273399
 3486, 601.001, 0.936206, 0.0002539, 10.156, 0.275408
 3492, 602.001, 0.934655, 0.000263199, 10.528, 0.277479
 3498, 603.001, 0.933047, 0.000272795, 10.9118, 0.279615
 3504, 604.001, 0.931381, 0.000282693, 11.3077, 0.281817
 3510, 605.001, 0.929654, 0.000292901, 11.716, 0.284086
 3516, 606.001, 0.927865, 0.000303425, 12.137, 0.286423
 3522, 607.001, 0.926012, 0.000314272, 12.5709, 0.288829
 3528, 608.001, 0.924093, 0.00032545, 13.018, 0.291307
 3534, 609.001, 0.922106, 0.000336964, 13.4786, 0.293857
 3540, 610.001, 0.920049, 0.000348821, 13.9529, 0.29648
 3546, 611.001, 0.917919, 0.000361028, 14.4411, 0.299178
 3552, 612.001, 0.915716, 0.000373591, 14.9437, 0.301952
 3558, 613.001, 0.913435, 0.000386517, 15.4607, 0.304803
 3564, 614.001, 0.911076, 0.00039981, 15.9924, 0.307731
 3570, 615.001, 0.908637, 0.000413478, 16.5391, 0.310739
 3576, 616.001, 0.906114, 0.000427525, 17.101, 0.313827
 3582, 617.001, 0.903506, 0.000441957, 17.6783, 0.316996
 3588, 618.001, 0.900809, 0.000456778, 18.2711, 0.320246
 3594, 619.001, 0.898023, 0.000471994, 18.8798, 0.323578
 3600, 620.001, 0.895145, 0.000487608, 19.5043, 0.326994
 3606, 621.001, 0.892171, 0.000503625, 20.145, 0.330492
 3612, 622.001, 0.8891, 0.000520048, 20.8019, 0.334074
 3618, 623.001, 0.885929, 0.000536879, 21.4752, 0.33774
 3624, 624.001, 0.882657, 0.000554121, 22.1648, 0.341489
 3630, 625.001, 0.879279, 0.000571776, 22.871, 0.345322
 3636, 626.001, 0.875794, 0.000589844, 23.5938, 0.349239
 3642, 627.001, 0.8722, 0.000608327, 24.3331, 0.353238
 3648, 628.001, 0.868493, 0.000627223, 25.0889, 0.357319
 3654, 629.001, 0.864672, 0.000646532, 25.8613, 0.361482
 3660, 630.001, 0.860734, 0.000666251, 26.65, 0.365725
 3666, 631.001, 0.856676, 0.000686378, 27.4551, 0.370047
 3672, 632.001, 0.852496, 0.000706909, 28.2764, 0.374446
 3678, 633.001, 0.848192, 0.000727839, 29.1136, 0.378921
 3684, 634.001, 0.843761, 0.000749161, 29.9664, 0.383469
 3690, 635.001, 0.839201, 0.000770869, 30.8348, 0.388088
 3696, 636.001, 0.83451, 0.000792954, 31.7181, 0.392775
 3702, 637.001, 0.829685, 0.000815406, 32.6162, 0.397527
 3708, 638.001, 0.824724, 0.000838214, 33.5285, 0.402341
 3714, 639.001, 0.819625, 0.000861365, 34.4546, 0.407212
 3720, 640.001, 0.814387, 0.000884846, 35.3938, 0.412137
 3726, 641.001, 0.809006, 0.00090864, 36.3456, 0.417112
 3732, 642.001, 0.803482, 0.00093273, 37.3092, 0.42213
 3738, 643.001, 0.797813, 0.000957097, 38.2839, 0.427187
 3744, 644.001, 0.791996, 0.00098172, 39.2688, 0.432278
 3750, 645.001, 0.786032, 0.00100658, 40.263, 0.437394
 3756, 646.001, 0.779917, 0.00103164, 41.2656, 0.442531
 3762, 647.001, 0.773651, 0.00105689, 42.2755, 0.44768
 3768, 648.001, 0.767234, 0.00108229, 43.2914, 0.452834
 3774, 649.001, 0.760663, 0.00110781, 44.3122, 0.457984
 3780, 650.001, 0.75394, 0.00113341, 45.3366, 0.463122
 3786, 651.001, 0.747062, 0.00115908, 46.3631, 0.468238
 3792, 652.001, 0.74003, 0.00118475, 47.3902, 0.473323
 3798, 653.001, 0.732845, 0.00121041, 48.4163, 0.478366
 3804, 654.001, 0.725505, 0.00123599, 49.4398, 0.483355
 3810, 655.001, 0.718013, 0.00126147, 50.4588, 0.488281
 3816, 656.001, 0.710368, 0.00128679, 51.4715, 0.493129
 3822, 657.001, 0.702571, 0.0013119, 52.4759, 0.497889
 3828, 658.001, 0.694625, 0.00133675, 53.4699, 0.502546
 3834, 659.001, 0.686531, 0.00136128, 54.4514, 0.507087
 3840, 660.001, 0.67829, 0.00138545, 55.4182, 0.511497
 3846, 661.001, 0.669906, 0.0014092, 56.3678, 0.515763
 3852, 662.001, 0.661381, 0.00143245, 57.298, 0.519869
 3858, 663.001, 0.652718, 0.00145515, 58.2061, 0.523799
 3864, 664.001, 0.64392, 0.00147724, 59.0897, 0.527538
 3870, 665.001, 0.634992, 0.00149865, 59.946, 0.531068
 3876, 666.001, 0.625937, 0.00151931, 60.7725, 0.534374
 3882, 667.001, 0.616761, 0.00153916, 61.5662, 0.537438
 3888, 668.001, 0.607469, 0.00155811, 62.3244, 0.540243
 3894, 669.001, 0.598066, 0.00157611, 63.0443, 0.542772
 3900, 670.001, 0.588558, 0.00159307, 63.7229, 0.545007
 3906, 671.001, 0.578951, 0.00160894, 64.3574, 0.546931
 3912, 672.001, 0.569253, 0.00162362, 64.9448, 0.548526
 3918, 673.001, 0.55947, 0.00163706, 65.4823, 0.549775
 3924, 674.001, 0.549611, 0.00164917, 65.9669, 0.550661
 3930, 675.001, 0.539683, 0.00165989, 66.3957, 0.551167
 3936, 676.001, 0.529695, 0.00166915, 66.7661, 0.551277
 3942, 677.001, 0.519656, 0.00167688, 67.0752, 0.550975
 3948, 678.001, 0.509575, 0.00168301, 67.3204, 0.550246
 3954, 679.001, 0.499463, 0.00168748, 67.4991, 0.549075
 3960, 680.001, 0.489329, 0.00169022, 67.6089, 0.547449
 3966, 681.001, 0.479184, 0.00169119, 67.6475, 0.545355
 3972, 682.001, 0.469038, 0.00169032, 67.6128, 0.542782
 3978, 683.001, 0.458904, 0.00168757, 67.5028, 0.53972
 3984, 684.001, 0.448791, 0.0016829, 67.3158, 0.536159
 3990, 685.001, 0.438713, 0.00167626, 67.0503, 0.532094
 3996, 686.001, 0.42868, 0.00166762, 66.7049, 0.527517
 4002, 687.001, 0.418706, 0.00165697, 66.2788, 0.522425
 4008, 688.001, 0.408801, 0.00164427, 65.771, 0.516816
 4014, 689.001, 0.398979, 0.00162953, 65.1812, 0.510691
 4020, 690.001, 0.389251, 0.00161273, 64.5094, 0.504051
 4026, 691.001, 0.37963, 0.00159389, 63.7556, 0.4969
 4032, 692.001, 0.370128, 0.00157301, 62.9205, 0.489246
 4038, 693.001, 0.360758, 0.00155013, 62.0051, 0.481097
 4044, 694.001, 0.351531, 0.00152527, 61.0106, 0.472464
 4050, 695.001, 0.342459, 0.00149847, 59.9388, 0.463362
 4056, 696.001, 0.333553, 0.0014698, 58.7918, 0.453806
 4062, 697.001, 0.324825, 0.0014393, 57.572, 0.443816
 4068, 698.001, 0.316286, 0.00140706, 56.2824, 0.433413
 4074, 699.001, 0.307944, 0.00137315, 54.9261, 0.42262
 4080, 700.001, 0.299811, 0.00133767, 53.507, 0.411464
 4086, 701.001, 0.291896, 0.00130072, 52.0289, 0.399974
 4092, 702.001, 0.284206, 0.00126241, 50.4963, 0.388178
 4098, 703.001, 0.27675, 0.00122285, 48.9139, 0.376112
 4104, 704.001, 0.269534, 0.00118217, 47.2867, 0.363808
 4110, 705.001, 0.262566, 0.0011405, 45.6202, 0.351304
 4116, 706.001, 0.25585, 0.00109799, 43.9198, 0.338636
 4122, 707.001, 0.249392, 0.00105478, 42.1914, 0.325845
 4128, 708.001, 0.243194, 0.00101102, 40.4409, 0.31297
 4134, 709.001, 0.237261, 0.000966866, 38.6747, 0.300053
 4140, 710.001, 0.231593, 0.000922468, 36.8987, 0.287133
 4146, 711.001, 0.226192, 0.000877987, 35.1195, 0.274253
 4152, 712.001, 0.221057, 0.000833581, 33.3433, 0.261455
 4158, 713.001, 0.216189, 0.000789407, 31.5763, 0.248778
 4164, 714.001, 0.211584, 0.000745618, 29.8247, 0.236263
 4170, 715.001, 0.207241, 0.000702366, 28.0946, 0.223948
 4176, 716.001, 0.203155, 0.000659796, 26.3919, 0.211872
 4182, 717.001, 0.199322, 0.000618049, 24.722, 0.200068
 4188, 718.001, 0.195737, 0.000577256, 23.0902, 0.188572
 4194, 719.001, 0.192393, 0.000537541, 21.5017, 0.177413
 4200, 720.001, 0.189284, 0.00049902, 19.9608, 0.16662
 4206, 721.001, 0.186403, 0.000461796, 18.4718, 0.156219
 4212, 722.001, 0.18374, 0.000425962, 17.0385, 0.146233
 4218, 723.001, 0.181288, 0.0003916, 15.664, 0.136679
 4224, 724.001, 0.179038, 0.000358777, 14.3511, 0.127575
 4230, 725.001, 0.17698, 0.00032755, 13.102, 0.118933
 4236, 726.001, 0.175105, 0.000297961, 11.9184, 0.110761
 4242, 727.001, 0.173402, 0.00027004, 10.8016, 0.103065
 4248, 728.001, 0.171861, 0.000243803, 9.75214, 0.0958472
 4254, 729.001, 0.170473, 0.000219256, 8.77022, 0.0891063
 4260, 730.001, 0.169227, 0.000196388, 7.85551, 0.0828376
 4266, 731.001, 0.168113, 0.00017518, 7.00719, 0.0770335
 4272, 732.001, 0.167122, 0.000155601, 6.22403, 0.0716839
 4278, 733.001, 0.166243, 0.000137609, 5.50438, 0.0667754
 4284, 734.001, 0.165468, 0.000121155, 4.84622, 0.062293
 4290, 735.001, 0.164786, 0.00010618, 4.24722, 0.0582189
 4296, 736.001, 0.164191, 9.26187e-05, 3.70475, 0.0545345
 4302, 737.001, 0.163672, 8.03993e-05, 3.21597, 0.0512189
 4308, 738.001, 0.163223, 6.94462e-05, 2.77785, 0.0482507
 4314, 739.001, 0.162837, 5.96804e-05, 2.38721, 0.0456071
 4320, 740.001, 0.162505, 5.10201e-05, 2.04081, 0.0432657
 4326, 741.001, 0.162223, 4.3383e-05, 1.73532, 0.041203
 4332, 742.001, 0.161983, 3.66863e-05, 1.46745, 0.0393962
 4338, 743.001, 0.161781, 3.08482e-05, 1.23393, 0.0378227
 4344, 744.001, 0.161611, 2.57891e-05, 1.03156, 0.0364604
 4350, 745.001, 0.16147, 2.14316e-05, 0.857264, 0.0352881
 4356, 746.001, 0.161353, 1.77018e-05, 0.708072, 0.0342858
 4362, 747.001, 0.161256, 1.45297e-05, 0.581187, 0.0334339
 4368, 748.001, 0.161177, 1.18495e-05, 0.473979, 0.0327146
 4374, 749.001, 0.161113, 9.60004e-06, 0.384002, 0.0321117
 4380, 750.001, 0.161061, 7.72511e-06, 0.309004, 0.0316093
 4386, 751.001, 0.16102, 6.1733e-06, 0.246932, 0.0311941
 4392, 752.001, 0.160987, 4.89815e-06, 0.195926, 0.0308528
 4398, 753.001, 0.160961, 3.85806e-06, 0.154323, 0.0305748
 4404, 754.001, 0.16094, 3.01611e-06, 0.120645, 0.0303499
 4410, 755.001, 0.160924, 2.33982e-06, 0.0935928, 0.0301692
 4416, 756.001, 0.160912, 1.80089e-06, 0.0720357, 0.0300255
 4422, 757.001, 0.160902, 1.37492e-06, 0.0549966, 0.029912
 4428, 758.001, 0.160895, 1.04101e-06, 0.0416406, 0.029823
 4434, 759.001, 0.16089, 7.81516e-07, 0.0312607, 0.0297539
 4440, 760.001, 0.160886, 5.81601e-07, 0.023264, 0.0297007
 4446, 761.001, 0.160883, 4.28965e-07, 0.0171586, 0.02966
 4452, 762.001, 0.16088, 3.13494e-07, 0.0125398, 0.0296292
 4458, 763.001, 0.160879, 2.26958e-07, 0.00907831, 0.0296063
 4464, 764.001, 0.160878, 1.6273e-07, 0.00650919, 0.0295892
 4470, 765.001, 0.160877, 1.15528e-07, 0.00462113, 0.0295767
 4476, 766.001, 0.160876, 8.11896e-08, 0.00324759, 0.0295678
 4482, 767.001, 0.160876, 5.64668e-08, 0.00225867, 0.029561
 4488, 768.001, 0.160876, 3.88554e-08, 0.00155422, 0.0295565
 4494, 769.001, 0.160875, 2.6446e-08, 0.00105784, 0.0295532
 4500, 770.001, 0.160875, 1.77991e-08, 0.000711966, 0.0295508
 4506, 771.001, 0.160875, 1.18426e-08, 0.000473705, 0.0295493
 4512, 772.001, 0.160875, 7.78719e-09, 0.000311488, 0.0295483
 4518, 773.001, 0.160875, 5.05907e-09, 0.000202363, 0.0295475
 4524, 774.001, 0.160875, 3.2463e-09, 0.000129852, 0.0295469
 4530, 775.001, 0.160875, 2.05683e-09, 8.22733e-05, 0.0295468
 4536, 776.001, 0.160875, 1.28637e-09, 5.14548e-05, 0.0295465
 4542, 777.001, 0.160875, 7.93873e-10, 3.17549e-05, 0.0295463
 4548, 778.001, 0.160875, 4.83293e-10, 1.93317e-05, 0.0295462
 4554, 779.001, 0.160875, 2.90134e-10, 1.16054e-05, 0.0295462
 4560, 780.001, 0.160875, 1.71699e-10, 6.86795e-06, 0.0295463
 4566, 781.001, 0.160875, 1.00129e-10, 4.00518e-06, 0.0295462
 4572, 782.001, 0.160875, 5.75211e-11, 2.30084e-06, 0.0295463
 4578, 783.001, 0.160875, 3.2539e-11, 1.30156e-06, 0.0295463
 4584, 784.001, 0.160875, 1.81187e-11, 7.24749e-07, 0.0295461
 4590, 785.001, 0.160875, 9.92733e-12, 3.97093e-07, 0.0295461
 4596, 786.001, 0.160875, 5.34992e-12, 2.13997e-07, 0.0295462
 4602, 787.001, 0.160875, 2.83464e-12, 1.13386e-07, 0.0295461
 4608, 788.001, 0.160875, 1.47606e-12, 5.90426e-08, 0.029546
 4614, 789.001, 0.160875, 7.55071e-13, 3.02028e-08, 0.0295461
 4620, 790.001, 0.160875, 3.79278e-13, 1.51711e-08, 0.0295461
 4626, 791.001, 0.160875, 1.86994e-13, 7.47974e-09, 0.0295462
 4632, 792.001, 0.160875, 9.04478e-14, 3.61791e-09, 0.0295461
 4638, 793.001, 0.160875, 4.29015e-14, 1.71606e-09, 0.0295462
 4644, 794.001, 0.160875, 1.99456e-14, 7.97826e-10, 0.0295461
 4650, 795.001, 0.160875, 9.0848e-15, 3.63392e-10, 0.029546
 4656, 796.001, 0.160875, 4.05194e-15, 1.62077e-10, 0.0295463
 4662, 797.001, 0.160875, 1.76877e-15, 7.07509e-11, 0.0295461
 4668, 798.001, 0.160875, 7.55303e-16, 3.02121e-11, 0.0295462
 4674, 799.001, 0.160875, 3.15344e-16, 1.26138e-11, 0.0295463
 4680, 800.001, 0.160875, 1.28656e-16, 5.14623e-12, 0.0295462