File: examples/Birch_TGA_Example/Work/Cone_4cd8bha9/birch_tga_1step_2_tga.csv
s,C,g/g,1/s,W/g,W/g
Time,Temp,Mass,MLR,MCC,DSC
 30, 21.0001, 0.999987, 4.80453e-07, 6.80585e-16, 0.0484218
 60, 22.0001, 0.999971, 5.51532e-07, 8.38624e-16, 0.0485805
 90, 23.0001, 0.999953, 6.32482e-07, 1.03191e-15, 0.0487612
 120, 24.0001, 0.999933, 7.24574e-07, 1.26796e-15, 0.0489667
 150, 25.0001, 0.99991, 8.29223e-07, 1.55587e-15, 0.0492002
 180, 26.0001, 0.999883, 9.4801e-07, 1.90653e-15, 0.0494653
 210, 27.0001, 0.999853, 1.08269e-06, 2.33307e-15, 0.0497658
 240, 28.0001, 0.999818, 1.2352e-06, 2.85121e-15, 0.0501061
 270, 29.0001, 0.999778, 1.40771e-06, 3.4798e-15, 0.0504909
 300, 30.0001, 0.999733, 1.60258e-06, 4.24139e-15, 0.0509255
 330, 31.0001, 0.999682, 1.82243e-06, 5.16293e-15, 0.0514158
 360, 32.0001, 0.999624, 2.07013e-06, 6.27662e-15, 0.0519682
 390, 33.0001, 0.999557, 2.34882e-06, 7.6208e-15, 0.0525895
 420, 34.0001, 0.999482, 2.66189e-06, 9.24117e-15, 0.0532874
 450, 35.0001, 0.999397, 3.01305e-06, 1.1192e-14, 0.0540701
 480, 36.0001, 0.999301, 3.40628e-06, 1.3538e-14, 0.0549465
 510, 37.0001, 0.999193, 3.84585e-06, 1.63556e-14, 0.0559259
 540, 38.0001, 0.99907, 4.3363e-06, 1.97356e-14, 0.0570186
 570, 39.0001, 0.998932, 4.88242e-06, 2.37854e-14, 0.058235
 600, 40.0001, 0.998776, 5.48922e-06, 2.86322e-14, 0.0595863
 630, 41.0001, 0.998602, 6.16185e-06, 3.44259e-14, 0.0610839
 660, 42.0001, 0.998406, 6.90557e-06, 4.13435e-14, 0.0627394
 690, 43.0001, 0.998187, 7.72561e-06, 4.95938e-14, 0.0645644
 720, 44.0001, 0.997942, 8.62708e-06, 5.94222e-14, 0.0665699
 750, 45.0001, 0.997668, 9.61477e-06, 7.11175e-14, 0.0687666
 780, 46.0001, 0.997364, 1.06929e-05, 8.50189e-14, 0.0711637
 810, 47.0001, 0.997026, 1.18651e-05, 1.01524e-13, 0.0737688
 840, 48.0001, 0.996651, 1.31337e-05, 1.211e-13, 0.076587
 870, 49.0001, 0.996237, 1.44998e-05, 1.44292e-13, 0.0796201
 900, 50.0001, 0.99578, 1.59624e-05, 1.7174e-13, 0.082866
 930, 51.0001, 0.995278, 1.75185e-05, 2.04189e-13, 0.0863168
 960, 52.0001, 0.994728, 1.9162e-05, 2.42511e-13, 0.0899588
 990, 53.0001, 0.994127, 2.08834e-05, 2.87722e-13, 0.09377
 1020, 54.0001, 0.993474, 2.26693e-05, 3.41005e-13, 0.0977197
 1050, 55.0001, 0.992767, 2.45015e-05, 4.03736e-13, 0.101767
 1080, 56.0001, 0.992004, 2.63566e-05, 4.77518e-13, 0.105858
 1110, 57.0001, 0.991185, 2.82058e-05, 5.64209e-13, 0.109927
 1140, 58.0001, 0.990312, 3.0014e-05, 6.65967e-13, 0.113897
 1170, 59.0001, 0.989385, 3.17404e-05, 7.85293e-13, 0.117674
 1200, 60.0001, 0.988409, 3.33383e-05, 9.25084e-13, 0.121153
 1230, 61.0001, 0.987387, 3.47561e-05, 1.08869e-12, 0.124218
 1260, 62.0001, 0.986326, 3.59385e-05, 1.27999e-12, 0.126745
 1290, 63.0001, 0.985233, 3.68283e-05, 1.50345e-12, 0.128606
 1320, 64.0001, 0.98412, 3.73693e-05, 1.76424e-12, 0.129674
 1350, 65.0001, 0.982995, 3.75093e-05, 2.06831e-12, 0.129834
 1380, 66.0001, 0.981873, 3.72041e-05, 2.42252e-12, 0.128986
 1410, 67.0001, 0.980768, 3.6422e-05, 2.83475e-12, 0.127062
 1440, 68.0001, 0.979693, 3.5148e-05, 3.31407e-12, 0.124029
 1470, 69.0001, 0.978664, 3.3388e-05, 3.8709e-12, 0.119902
 1500, 70.0001, 0.977694, 3.11719e-05, 4.5172e-12, 0.114752
 1530, 71.0001, 0.976798, 2.85552e-05, 5.26668e-12, 0.108706
 1560, 72.0001, 0.975984, 2.56186e-05, 6.13506e-12, 0.101947
 1590, 73.0001, 0.975263, 2.24643e-05, 7.14031e-12, 0.0947086
 1620, 74.0001, 0.974637, 1.92104e-05, 8.30302e-12, 0.0872584
 1650, 75.0001, 0.97411, 1.59822e-05, 9.6467e-12, 0.07988
 1680, 76.0001, 0.973677, 1.29016e-05, 1.11982e-11, 0.0728489
 1710, 77.0001, 0.973333, 1.00765e-05, 1.29882e-11, 0.0664083
 1740, 78.0001, 0.973069, 7.59038e-06, 1.50515e-11, 0.060746
 1770, 79.0001, 0.972874, 5.49563e-06, 1.7428e-11, 0.0559789
 1800, 80.0001, 0.972735, 3.81018e-06, 2.01631e-11, 0.0521458
 1830, 81.0001, 0.972641, 2.51929e-06, 2.33081e-11, 0.0492118
 1860, 82.0001, 0.972581, 1.58158e-06, 2.69218e-11, 0.0470816
 1890, 83.0001, 0.972543, 9.38173e-07, 3.10705e-11, 0.0456206
 1920, 84.0001, 0.972522, 5.2309e-07, 3.58298e-11, 0.0446784
 1950, 85.0001, 0.97251, 2.72579e-07, 4.12852e-11, 0.04411
 1980, 86.0001, 0.972505, 1.31928e-07, 4.75338e-11, 0.0437909
 2010, 87.0001, 0.972502, 5.89092e-08, 5.46852e-11, 0.0436253
 2040, 88.0001, 0.972501, 2.40911e-08, 6.28638e-11, 0.0435464
 2070, 89.0001, 0.9725, 8.95183e-09, 7.221e-11, 0.0435121
 2100, 90.0001, 0.9725, 2.99649e-09, 8.28823e-11, 0.0434986
 2130, 91.0001, 0.9725, 8.95177e-10, 9.506e-11, 0.0434938
 2160, 92.0001, 0.9725, 2.36274e-10, 1.08945e-10, 0.0434923
 2190, 93.0001, 0.9725, 5.44998e-11, 1.24765e-10, 0.0434919
 2220, 94.0001, 0.9725, 1.08589e-11, 1.42778e-10, 0.0434918
 2250, 95.0001, 0.9725, 1.84767e-12, 1.6327e-10, 0.0434918
 2280, 96.0001, 0.9725, 2.67943e-13, 1.86569e-10, 0.0434918
 2310, 97.0001, 0.9725, 3.64714e-14, 2.13039e-10, 0.0434918
 2340, 98.0001, 0.9725, 9.08036e-15, 2.4309e-10, 0.0434918
 2370, 99.0001, 0.9725, 7.16152e-15, 2.77184e-10, 0.0434918
 2400, 100, 0.9725, 7.91e-15, 3.15837e-10, 0.0434918
 2430, 101, 0.9725, 8.99138e-15, 3.59629e-10, 0.0434918
 2460, 102, 0.9725, 1.02303e-14, 4.0921e-10, 0.0434918
 2490, 103, 0.9725, 1.16327e-14, 4.65306e-10, 0.0434918
 2520, 104, 0.9725, 1.32183e-14, 5.28733e-10, 0.0434918
 2550, 105, 0.9725, 1.501e-14, 6.00399e-10, 0.0434918
 2580, 106, 0.9725, 1.7033e-14, 6.81322e-10, 0.0434918
 2610, 107, 0.9725, 1.93159e-14, 7.72637e-10, 0.0434918
 2640, 108, 0.9725, 2.18903e-14, 8.75614e-10, 0.0434918
 2670, 109, 0.9725, 2.47916e-14, 9.91666e-10, 0.0434918
 2700, 110, 0.9725, 2.80592e-14, 1.12237e-09, 0.0434918
 2730, 111, 0.9725, 3.1737e-14, 1.26948e-09, 0.0434918
 2760, 112, 0.9725, 3.58739e-14, 1.43496e-09, 0.0434918
 2790, 113, 0.9725, 4.05243e-14, 1.62097e-09, 0.0434918
 2820, 114, 0.9725, 4.57488e-14, 1.82995e-09, 0.0434918
 2850, 115, 0.9725, 5.16145e-14, 2.06458e-09, 0.0434918
 2880, 116, 0.9725, 5.81962e-14, 2.32785e-09, 0.0434918
 2910, 117, 0.9725, 6.55769e-14, 2.62308e-09, 0.0434918
 2940, 118, 0.9725, 7.38485e-14, 2.95394e-09, 0.0434918
 2970, 119, 0.9725, 8.3113e-14, 3.32452e-09, 0.0434918
 3000, 120, 0.9725, 9.34836e-14, 3.73934e-09, 0.0434918
 3030, 121, 0.9725, 1.05085e-13, 4.20342e-09, 0.0434918
 3060, 122, 0.9725, 1.18057e-13, 4.72229e-09, 0.0434918
 3090, 123, 0.9725, 1.32552e-13, 5.3021e-09, 0.0434918
 3120, 124, 0.9725, 1.48741e-13, 5.94962e-09, 0.0434918
 3150, 125, 0.9725, 1.66809e-13, 6.67237e-09, 0.0434918
 3180, 126, 0.9725, 1.86965e-13, 7.47861e-09, 0.0434918
 3210, 127, 0.9725, 2.09437e-13, 8.37749e-09, 0.0434918
 3240, 128, 0.9725, 2.34478e-13, 9.3791e-09, 0.0434918
 3270, 129, 0.9725, 2.62364e-13, 1.04946e-08, 0.0434918
 3300, 130, 0.9725, 2.93404e-13, 1.17362e-08, 0.0434918
 3330, 131, 0.9725, 3.27935e-13, 1.31174e-08, 0.0434918
 3360, 132, 0.9725, 3.66328e-13, 1.46531e-08, 0.0434918
 3390, 133, 0.9725, 4.08993e-13, 1.63597e-08, 0.0434918
 3420, 134, 0.9725, 4.5638e-13, 1.82552e-08, 0.0434918
 3450, 135, 0.9725, 5.08984e-13, 2.03594e-08, 0.0434918
 3480, 136, 0.9725, 5.67348e-13, 2.26939e-08, 0.0434918
 3510, 137, 0.9725, 6.32071e-13, 2.52828e-08, 0.0434918
 3540, 138, 0.9725, 7.03807e-13, 2.81523e-08, 0.0434918
 3570, 139, 0.9725, 7.83276e-13, 3.1331e-08, 0.0434918
 3600, 140, 0.9725, 8.71267e-13, 3.48507e-08, 0.0434918
 3630, 141, 0.9725, 9.68644e-13, 3.87458e-08, 0.0434918
 3660, 142, 0.9725, 1.07635e-12, 4.30542e-08, 0.0434918
 3690, 143, 0.9725, 1.19544e-12, 4.78175e-08, 0.0434918
 3720, 144, 0.9725, 1.32703e-12, 5.30811e-08, 0.0434918
 3750, 145, 0.9725, 1.47236e-12, 5.88946e-08, 0.0434918
 3780, 146, 0.9725, 1.63281e-12, 6.53124e-08, 0.0434918
 3810, 147, 0.9725, 1.80985e-12, 7.2394e-08, 0.0434918
 3840, 148, 0.9725, 2.0051e-12, 8.02042e-08, 0.0434918
 3870, 149, 0.9725, 2.22035e-12, 8.88138e-08, 0.0434918
 3900, 150, 0.9725, 2.45751e-12, 9.83003e-08, 0.0434918
 3930, 151, 0.9725, 2.7187e-12, 1.08748e-07, 0.0434918
 3960, 152, 0.9725, 3.00622e-12, 1.20249e-07, 0.0434918
 3990, 153, 0.9725, 3.32259e-12, 1.32904e-07, 0.0434918
 4020, 154, 0.9725, 3.67052e-12, 1.46821e-07, 0.0434918
 4050, 155, 0.9725, 4.05301e-12, 1.6212e-07, 0.0434918
 4080, 156, 0.9725, 4.47329e-12, 1.78932e-07, 0.0434918
 4110, 157, 0.9725, 4.93488e-12, 1.97395e-07, 0.0434918
 4140, 158, 0.9725, 5.44162e-12, 2.17665e-07, 0.0434918
 4170, 159, 0.9725, 5.99769e-12, 2.39908e-07, 0.0434918
 4200, 160, 0.9725, 6.60761e-12, 2.64304e-07, 0.0434918
 4230, 161, 0.9725, 7.27631e-12, 2.91052e-07, 0.0434918
 4260, 162, 0.9725, 8.00913e-12, 3.20365e-07, 0.0434918
 4290, 163, 0.9725, 8.81188e-12, 3.52475e-07, 0.0434918
 4320, 164, 0.9725, 9.69085e-12, 3.87634e-07, 0.0434918
 4350, 165, 0.9725, 1.06529e-11, 4.26115e-07, 0.0434918
 4380, 166, 0.9725, 1.17053e-11, 4.68214e-07, 0.0434918
 4410, 167, 0.9725, 1.28563e-11, 5.14252e-07, 0.0434918
 4440, 168, 0.9725, 1.41144e-11, 5.64577e-07, 0.0434918
 4470, 169, 0.9725, 1.54891e-11, 6.19565e-07, 0.0434918
 4500, 170, 0.9725, 1.69906e-11, 6.79623e-07, 0.0434918
 4530, 171, 0.9725, 1.86298e-11, 7.45193e-07, 0.0434918
 4560, 172, 0.9725, 2.04188e-11, 8.1675e-07, 0.0434918
 4590, 173, 0.9725, 2.23703e-11, 8.94812e-07, 0.0434918
 4620, 174, 0.9725, 2.44983e-11, 9.79933e-07, 0.0434918
 4650, 175, 0.9725, 2.68179e-11, 1.07272e-06, 0.0434918
 4680, 176, 0.9725, 2.93454e-11, 1.17381e-06, 0.0434918
 4710, 177, 0.9725, 3.20981e-11, 1.28392e-06, 0.0434918
 4740, 178, 0.9725, 3.50951e-11, 1.40381e-06, 0.0434918
 4770, 179, 0.9725, 3.83569e-11, 1.53427e-06, 0.0434918
 4800, 180, 0.9725, 4.19053e-11, 1.67621e-06, 0.0434918
 4830, 181, 0.9725, 4.57641e-11, 1.83057e-06, 0.0434918
 4860, 182, 0.9725, 4.9959e-11, 1.99836e-06, 0.0434918
 4890, 183, 0.9725, 5.45174e-11, 2.18069e-06, 0.0434918
 4920, 184, 0.9725, 5.9469e-11, 2.37876e-06, 0.0434918
 4950, 185, 0.9725, 6.48457e-11, 2.59383e-06, 0.0434918
 4980, 186, 0.9725, 7.06818e-11, 2.82727e-06, 0.0434918
 5010, 187, 0.9725, 7.70144e-11, 3.08058e-06, 0.0434918
 5040, 188, 0.9725, 8.38831e-11, 3.35533e-06, 0.0434918
 5070, 189, 0.9725, 9.13307e-11, 3.65323e-06, 0.0434918
 5100, 190, 0.9725, 9.94029e-11, 3.97612e-06, 0.0434918
 5130, 191, 0.9725, 1.08149e-10, 4.32597e-06, 0.0434918
 5160, 192, 0.9725, 1.17622e-10, 4.70489e-06, 0.0434918
 5190, 193, 0.9725, 1.27879e-10, 5.11517e-06, 0.0434918
 5220, 194, 0.9725, 1.38981e-10, 5.55923e-06, 0.0434918
 5250, 195, 0.9725, 1.50992e-10, 6.03969e-06, 0.0434919
 5280, 196, 0.9725, 1.63984e-10, 6.55936e-06, 0.0434918
 5310, 197, 0.9725, 1.78031e-10, 7.12124e-06, 0.0434919
 5340, 198, 0.9725, 1.93214e-10, 7.72856e-06, 0.0434919
 5370, 199, 0.9725, 2.09619e-10, 8.38476e-06, 0.0434919
 5400, 200, 0.9725, 2.27339e-10, 9.09354e-06, 0.0434919
 5430, 201, 0.9725, 2.46472e-10, 9.85886e-06, 0.0434919
 5460, 202, 0.9725, 2.67124e-10, 1.0685e-05, 0.0434919
 5490, 203, 0.9725, 2.89409e-10, 1.15764e-05, 0.0434919
 5520, 204, 0.9725, 3.13448e-10, 1.25379e-05, 0.0434919
 5550, 205, 0.9725, 3.39371e-10, 1.35748e-05, 0.0434919
 5580, 206, 0.9725, 3.67315e-10, 1.46926e-05, 0.0434919
 5610, 207, 0.9725, 3.9743e-10, 1.58972e-05, 0.0434919
 5640, 208, 0.9725, 4.29872e-10, 1.71949e-05, 0.0434919
 5670, 209, 0.9725, 4.64812e-10, 1.85925e-05, 0.0434919
 5700, 210, 0.9725, 5.02429e-10, 2.00972e-05, 0.0434919
 5730, 211, 0.9725, 5.42916e-10, 2.17166e-05, 0.0434919
 5760, 212, 0.9725, 5.86477e-10, 2.34591e-05, 0.0434919
 5790, 213, 0.9725, 6.33333e-10, 2.53333e-05, 0.0434919
 5820, 214, 0.9725, 6.83717e-10, 2.73487e-05, 0.043492
 5850, 215, 0.9725, 7.37877e-10, 2.95151e-05, 0.043492
 5880, 216, 0.9725, 7.96079e-10, 3.18432e-05, 0.043492
 5910, 217, 0.9725, 8.58607e-10, 3.43443e-05, 0.043492
 5940, 218, 0.9725, 9.2576e-10, 3.70304e-05, 0.043492
 5970, 219, 0.9725, 9.9786e-10, 3.99144e-05, 0.0434921
 6000, 220, 0.9725, 1.07525e-09, 4.30099e-05, 0.0434921
 6030, 221, 0.9725, 1.15829e-09, 4.63315e-05, 0.0434921
 6060, 222, 0.972499, 1.24737e-09, 4.98946e-05, 0.0434921
 6090, 223, 0.972499, 1.34289e-09, 5.37157e-05, 0.0434921
 6120, 224, 0.972499, 1.44531e-09, 5.78123e-05, 0.0434922
 6150, 225, 0.972499, 1.55507e-09, 6.22029e-05, 0.0434922
 6180, 226, 0.972499, 1.67268e-09, 6.69074e-05, 0.0434922
 6210, 227, 0.972499, 1.79867e-09, 7.19466e-05, 0.0434922
 6240, 228, 0.972499, 1.93358e-09, 7.7343e-05, 0.0434923
 6270, 229, 0.972499, 2.07801e-09, 8.31202e-05, 0.0434923
 6300, 230, 0.972499, 2.23259e-09, 8.93034e-05, 0.0434923
 6330, 231, 0.972499, 2.39798e-09, 9.59192e-05, 0.0434924
 6360, 232, 0.972499, 2.5749e-09, 0.000102996, 0.0434924
 6390, 233, 0.972499, 2.76409e-09, 0.000110564, 0.0434925
 6420, 234, 0.972499, 2.96636e-09, 0.000118654, 0.0434925
 6450, 235, 0.972499, 3.18254e-09, 0.000127302, 0.0434926
 6480, 236, 0.972499, 3.41354e-09, 0.000136542, 0.0434927
 6510, 237, 0.972498, 3.66029e-09, 0.000146412, 0.0434927
 6540, 238, 0.972498, 3.92381e-09, 0.000156953, 0.0434928
 6570, 239, 0.972498, 4.20516e-09, 0.000168207, 0.0434928
 6600, 240, 0.972498, 4.50547e-09, 0.000180219, 0.0434929
 6630, 241, 0.972498, 4.82593e-09, 0.000193037, 0.043493
 6660, 242, 0.972498, 5.16781e-09, 0.000206712, 0.0434931
 6690, 243, 0.972498, 5.53243e-09, 0.000221297, 0.0434931
 6720, 244, 0.972498, 5.92122e-09, 0.000236849, 0.0434932
 6750, 245, 0.972497, 6.33567e-09, 0.000253427, 0.0434933
 6780, 246, 0.972497, 6.77736e-09, 0.000271095, 0.0434935
 6810, 247, 0.972497, 7.24797e-09, 0.000289919, 0.0434936
 6840, 248, 0.972497, 7.74926e-09, 0.00030997, 0.0434937
 6870, 249, 0.972496, 8.2831e-09, 0.000331324, 0.0434938
 6900, 250, 0.972496, 8.85145e-09, 0.000354058, 0.043494
 6930, 251, 0.972496, 9.45642e-09, 0.000378257, 0.0434941
 6960, 252, 0.972496, 1.01002e-08, 0.000404007, 0.0434943
 6990, 253, 0.972495, 1.07851e-08, 0.000431403, 0.0434944
 7020, 254, 0.972495, 1.15135e-08, 0.000460541, 0.0434946
 7050, 255, 0.972495, 1.22882e-08, 0.000491526, 0.0434948
 7080, 256, 0.972494, 1.31117e-08, 0.000524467, 0.043495
 7110, 257, 0.972494, 1.3987e-08, 0.000559478, 0.0434952
 7140, 258, 0.972493, 1.4917e-08, 0.000596681, 0.0434954
 7170, 259, 0.972493, 1.59051e-08, 0.000636204, 0.0434957
 7200, 260, 0.972492, 1.69546e-08, 0.000678182, 0.0434959
 7230, 261, 0.972492, 1.80689e-08, 0.000722757, 0.0434962
 7260, 262, 0.972491, 1.92519e-08, 0.000770078, 0.0434965
 7290, 263, 0.972491, 2.05076e-08, 0.000820303, 0.0434968
 7320, 264, 0.97249, 2.18399e-08, 0.000873598, 0.0434971
 7350, 265, 0.972489, 2.32535e-08, 0.000930138, 0.0434975
 7380, 266, 0.972489, 2.47527e-08, 0.000990108, 0.0434978
 7410, 267, 0.972488, 2.63425e-08, 0.0010537, 0.0434982
 7440, 268, 0.972487, 2.80279e-08, 0.00112112, 0.0434986
 7470, 269, 0.972486, 2.98144e-08, 0.00119258, 0.0434991
 7500, 270, 0.972485, 3.17075e-08, 0.0012683, 0.0434995
 7530, 271, 0.972484, 3.37132e-08, 0.00134853, 0.0435
 7560, 272, 0.972483, 3.58377e-08, 0.00143351, 0.0435005
 7590, 273, 0.972482, 3.80875e-08, 0.0015235, 0.043501
 7620, 274, 0.972481, 4.04696e-08, 0.00161878, 0.0435016
 7650, 275, 0.97248, 4.29911e-08, 0.00171965, 0.0435023
 7680, 276, 0.972479, 4.56597e-08, 0.00182639, 0.0435029
 7710, 277, 0.972477, 4.84833e-08, 0.00193933, 0.0435036
 7740, 278, 0.972476, 5.14704e-08, 0.00205881, 0.0435043
 7770, 279, 0.972474, 5.46296e-08, 0.00218518, 0.043505
 7800, 280, 0.972472, 5.79702e-08, 0.00231881, 0.0435058
 7830, 281, 0.972471, 6.15019e-08, 0.00246008, 0.0435067
 7860, 282, 0.972469, 6.52348e-08, 0.00260939, 0.0435076
 7890, 283, 0.972467, 6.91797e-08, 0.00276719, 0.0435086
 7920, 284, 0.972464, 7.33477e-08, 0.00293391, 0.0435096
 7950, 285, 0.972462, 7.77504e-08, 0.00311002, 0.0435106
 7980, 286, 0.97246, 8.24002e-08, 0.00329601, 0.0435118
 8010, 287, 0.972457, 8.731e-08, 0.0034924, 0.0435129
 8040, 288, 0.972455, 9.24932e-08, 0.00369973, 0.0435141
 8070, 289, 0.972452, 9.7964e-08, 0.00391856, 0.0435155
 8100, 290, 0.972449, 1.03737e-07, 0.00414949, 0.0435169
 8130, 291, 0.972445, 1.09828e-07, 0.00439313, 0.0435183
 8160, 292, 0.972442, 1.16254e-07, 0.00465014, 0.0435199
 8190, 293, 0.972438, 1.2303e-07, 0.0049212, 0.0435215
 8220, 294, 0.972435, 1.30175e-07, 0.00520701, 0.0435232
 8250, 295, 0.972431, 1.37708e-07, 0.00550833, 0.043525
 8280, 296, 0.972426, 1.45648e-07, 0.00582593, 0.043527
 8310, 297, 0.972422, 1.54016e-07, 0.00616063, 0.0435289
 8340, 298, 0.972417, 1.62832e-07, 0.00651328, 0.043531
 8370, 299, 0.972412, 1.72119e-07, 0.00688478, 0.0435333
 8400, 300, 0.972407, 1.81901e-07, 0.00727605, 0.0435356
 8430, 301, 0.972401, 1.92202e-07, 0.00768807, 0.0435381
 8460, 302, 0.972395, 2.03047e-07, 0.00812187, 0.0435406
 8490, 303, 0.972389, 2.14463e-07, 0.00857851, 0.0435434
 8520, 304, 0.972382, 2.26477e-07, 0.0090591, 0.0435463
 8550, 305, 0.972375, 2.3912e-07, 0.0095648, 0.0435493
 8580, 306, 0.972368, 2.52421e-07, 0.0100968, 0.0435525
 8610, 307, 0.97236, 2.66412e-07, 0.0106565, 0.0435558
 8640, 308, 0.972352, 2.81126e-07, 0.011245, 0.0435593
 8670, 309, 0.972343, 2.96597e-07, 0.0118639, 0.043563
 8700, 310, 0.972334, 3.12863e-07, 0.0125145, 0.0435669
 8730, 311, 0.972325, 3.2996e-07, 0.0131984, 0.0435709
 8760, 312, 0.972314, 3.47927e-07, 0.0139171, 0.0435752
 8790, 313, 0.972304, 3.66807e-07, 0.0146723, 0.0435798
 8820, 314, 0.972292, 3.86641e-07, 0.0154656, 0.0435845
 8850, 315, 0.972281, 4.07474e-07, 0.016299, 0.0435894
 8880, 316, 0.972268, 4.29353e-07, 0.0171741, 0.0435946
 8910, 317, 0.972255, 4.52326e-07, 0.018093, 0.0436001
 8940, 318, 0.972241, 4.76444e-07, 0.0190577, 0.0436058
 8970, 319, 0.972226, 5.01759e-07, 0.0200704, 0.0436119
 9000, 320, 0.972211, 5.28326e-07, 0.0211331, 0.0436182
 9030, 321, 0.972194, 5.56203e-07, 0.0222481, 0.0436248
 9060, 322, 0.972177, 5.85449e-07, 0.023418, 0.0436317
 9090, 323, 0.972159, 6.16127e-07, 0.0246451, 0.043639
 9120, 324, 0.97214, 6.48299e-07, 0.025932, 0.0436466
 9150, 325, 0.97212, 6.82035e-07, 0.0272814, 0.0436546
 9180, 326, 0.972099, 7.17404e-07, 0.0286962, 0.043663
 9210, 327, 0.972077, 7.54479e-07, 0.0301792, 0.0436718
 9240, 328, 0.972054, 7.93336e-07, 0.0317335, 0.043681
 9270, 329, 0.97203, 8.34054e-07, 0.0333622, 0.0436907
 9300, 330, 0.972004, 8.76714e-07, 0.0350686, 0.0437008
 9330, 331, 0.971977, 9.21403e-07, 0.0368561, 0.0437113
 9360, 332, 0.971949, 9.68208e-07, 0.0387283, 0.0437224
 9390, 333, 0.971919, 1.01722e-06, 0.0406889, 0.0437339
 9420, 334, 0.971888, 1.06854e-06, 0.0427417, 0.043746
 9450, 335, 0.971855, 1.12227e-06, 0.0448908, 0.0437588
 9480, 336, 0.97182, 1.1785e-06, 0.0471401, 0.0437721
 9510, 337, 0.971784, 1.23735e-06, 0.0494942, 0.043786
 9540, 338, 0.971746, 1.29893e-06, 0.0519574, 0.0438005
 9570, 339, 0.971706, 1.36336e-06, 0.0545343, 0.0438157
 9600, 340, 0.971664, 1.43075e-06, 0.0572299, 0.0438316
 9630, 341, 0.97162, 1.50123e-06, 0.0600492, 0.0438481
 9660, 342, 0.971574, 1.57493e-06, 0.0629973, 0.0438655
 9690, 343, 0.971526, 1.65199e-06, 0.0660796, 0.0438836
 9720, 344, 0.971475, 1.73255e-06, 0.0693018, 0.0439026
 9750, 345, 0.971422, 1.81674e-06, 0.0726697, 0.0439224
 9780, 346, 0.971366, 1.90473e-06, 0.0761893, 0.0439431
 9810, 347, 0.971307, 1.99667e-06, 0.079867, 0.0439647
 9840, 348, 0.971246, 2.09273e-06, 0.0837091, 0.0439873
 9870, 349, 0.971182, 2.19306e-06, 0.0877225, 0.0440108
 9900, 350, 0.971114, 2.29785e-06, 0.091914, 0.0440354
 9930, 351, 0.971044, 2.40728e-06, 0.0962911, 0.0440611
 9960, 352, 0.97097, 2.52153e-06, 0.100861, 0.0440879
 9990, 353, 0.970893, 2.6408e-06, 0.105632, 0.0441158
 10020, 354, 0.970811, 2.76529e-06, 0.110611, 0.044145
 10050, 355, 0.970727, 2.89521e-06, 0.115808, 0.0441755
 10080, 356, 0.970638, 3.03077e-06, 0.121231, 0.0442072
 10110, 357, 0.970545, 3.1722e-06, 0.126888, 0.0442403
 10140, 358, 0.970447, 3.31974e-06, 0.13279, 0.0442748
 10170, 359, 0.970345, 3.47361e-06, 0.138945, 0.0443108
 10200, 360, 0.970239, 3.63408e-06, 0.145363, 0.0443483
 10230, 361, 0.970127, 3.80139e-06, 0.152056, 0.0443874
 10260, 362, 0.970011, 3.97581e-06, 0.159033, 0.0444281
 10290, 363, 0.969889, 4.15763e-06, 0.166305, 0.0444706
 10320, 364, 0.969761, 4.34711e-06, 0.173884, 0.0445148
 10350, 365, 0.969628, 4.54455e-06, 0.181782, 0.0445608
 10380, 366, 0.969488, 4.75027e-06, 0.190011, 0.0446088
 10410, 367, 0.969343, 4.96457e-06, 0.198583, 0.0446587
 10440, 368, 0.96919, 5.18778e-06, 0.207511, 0.0447107
 10470, 369, 0.969031, 5.42023e-06, 0.216809, 0.0447648
 10500, 370, 0.968865, 5.66227e-06, 0.226491, 0.0448211
 10530, 371, 0.968691, 5.91426e-06, 0.23657, 0.0448798
 10560, 372, 0.96851, 6.17656e-06, 0.247062, 0.0449408
 10590, 373, 0.968321, 6.44956e-06, 0.257982, 0.0450042
 10620, 374, 0.968123, 6.73365e-06, 0.269346, 0.0450702
 10650, 375, 0.967917, 7.02924e-06, 0.28117, 0.0451388
 10680, 376, 0.967701, 7.33674e-06, 0.29347, 0.0452101
 10710, 377, 0.967476, 7.65659e-06, 0.306264, 0.0452843
 10740, 378, 0.967242, 7.98923e-06, 0.319569, 0.0453615
 10770, 379, 0.966997, 8.33512e-06, 0.333405, 0.0454416
 10800, 380, 0.966741, 8.69473e-06, 0.347789, 0.0455249
 10830, 381, 0.966475, 9.06855e-06, 0.362742, 0.0456114
 10860, 382, 0.966197, 9.45709e-06, 0.378283, 0.0457013
 10890, 383, 0.965907, 9.86084e-06, 0.394434, 0.0457947
 10920, 384, 0.965605, 1.02804e-05, 0.411214, 0.0458916
 10950, 385, 0.96529, 1.07162e-05, 0.428647, 0.0459923
 10980, 386, 0.964962, 1.11689e-05, 0.446754, 0.0460968
 11010, 387, 0.96462, 1.1639e-05, 0.465559, 0.0462054
 11040, 388, 0.964264, 1.21272e-05, 0.485086, 0.0463179
 11070, 389, 0.963892, 1.2634e-05, 0.505359, 0.0464349
 11100, 390, 0.963505, 1.31601e-05, 0.526403, 0.0465561
 11130, 391, 0.963102, 1.37061e-05, 0.548243, 0.0466818
 11160, 392, 0.962683, 1.42727e-05, 0.570907, 0.0468122
 11190, 393, 0.962246, 1.48605e-05, 0.594422, 0.0469475
 11220, 394, 0.961791, 1.54704e-05, 0.618815, 0.0470877
 11250, 395, 0.961317, 1.61029e-05, 0.644114, 0.0472331
 11280, 396, 0.960825, 1.67588e-05, 0.67035, 0.0473837
 11310, 397, 0.960312, 1.74388e-05, 0.697553, 0.0475399
 11340, 398, 0.959778, 1.81438e-05, 0.725752, 0.0477016
 11370, 399, 0.959223, 1.88745e-05, 0.75498, 0.0478691
 11400, 400, 0.958645, 1.96317e-05, 0.785269, 0.0480427
 11430, 401, 0.958045, 2.04163e-05, 0.816651, 0.0482223
 11460, 402, 0.95742, 2.1229e-05, 0.84916, 0.0484084
 11490, 403, 0.956771, 2.20708e-05, 0.882832, 0.048601
 11520, 404, 0.956095, 2.29425e-05, 0.9177, 0.0488003
 11550, 405, 0.955394, 2.3845e-05, 0.9538, 0.0490064
 11580, 406, 0.954664, 2.47793e-05, 0.991171, 0.0492198
 11610, 407, 0.953907, 2.57462e-05, 1.02985, 0.0494404
 11640, 408, 0.953119, 2.67467e-05, 1.06987, 0.0496686
 11670, 409, 0.952301, 2.77818e-05, 1.11127, 0.0499045
 11700, 410, 0.951452, 2.88525e-05, 1.1541, 0.0501483
 11730, 411, 0.95057, 2.99598e-05, 1.19839, 0.0504003
 11760, 412, 0.949654, 3.11046e-05, 1.24418, 0.0506607
 11790, 413, 0.948703, 3.2288e-05, 1.29152, 0.0509297
 11820, 414, 0.947716, 3.35111e-05, 1.34044, 0.0512075
 11850, 415, 0.946692, 3.47749e-05, 1.391, 0.0514944
 11880, 416, 0.945629, 3.60806e-05, 1.44322, 0.0517904
 11910, 417, 0.944527, 3.7429e-05, 1.49716, 0.052096
 11940, 418, 0.943383, 3.88215e-05, 1.55286, 0.0524113
 11970, 419, 0.942197, 4.02591e-05, 1.61036, 0.0527366
 12000, 420, 0.940967, 4.17428e-05, 1.66971, 0.0530721
 12030, 421, 0.939692, 4.32738e-05, 1.73095, 0.0534179
 12060, 422, 0.93837, 4.48534e-05, 1.79413, 0.0537745
 12090, 423, 0.937, 4.64824e-05, 1.8593, 0.0541419
 12120, 424, 0.935581, 4.81622e-05, 1.92649, 0.0545204
 12150, 425, 0.93411, 4.98939e-05, 1.99576, 0.0549103
 12180, 426, 0.932587, 5.16785e-05, 2.06714, 0.0553118
 12210, 427, 0.931009, 5.35173e-05, 2.14069, 0.055725
 12240, 428, 0.929375, 5.54113e-05, 2.21645, 0.0561503
 12270, 429, 0.927684, 5.73616e-05, 2.29447, 0.0565878
 12300, 430, 0.925933, 5.93695e-05, 2.37478, 0.0570377
 12330, 431, 0.924121, 6.14359e-05, 2.45743, 0.0575003
 12360, 432, 0.922246, 6.35619e-05, 2.54248, 0.0579758
 12390, 433, 0.920306, 6.57486e-05, 2.62995, 0.0584644
 12420, 434, 0.9183, 6.79971e-05, 2.71988, 0.0589661
 12450, 435, 0.916226, 7.03083e-05, 2.81233, 0.0594813
 12480, 436, 0.914081, 7.26832e-05, 2.90733, 0.06001
 12510, 437, 0.911864, 7.51227e-05, 3.00491, 0.0605526
 12540, 438, 0.909573, 7.76278e-05, 3.10511, 0.061109
 12570, 439, 0.907206, 8.01993e-05, 3.20797, 0.0616795
 12600, 440, 0.904761, 8.28379e-05, 3.31352, 0.0622641
 12630, 441, 0.902235, 8.55445e-05, 3.42178, 0.062863
 12660, 442, 0.899627, 8.83198e-05, 3.53279, 0.0634762
 12690, 443, 0.896935, 9.11643e-05, 3.64657, 0.0641038
 12720, 444, 0.894157, 9.40786e-05, 3.76314, 0.0647459
 12750, 445, 0.89129, 9.70632e-05, 3.88253, 0.0654024
 12780, 446, 0.888332, 0.000100118, 4.00474, 0.0660735
 12810, 447, 0.885282, 0.000103245, 4.12979, 0.0667591
 12840, 448, 0.882137, 0.000106442, 4.25768, 0.0674591
 12870, 449, 0.878895, 0.000109711, 4.38843, 0.0681734
 12900, 450, 0.875553, 0.000113051, 4.52202, 0.0689019
 12930, 451, 0.872111, 0.000116462, 4.65846, 0.0696446
 12960, 452, 0.868565, 0.000119943, 4.79773, 0.0704012
 12990, 453, 0.864913, 0.000123496, 4.93982, 0.0711716
 13020, 454, 0.861154, 0.000127118, 5.0847, 0.0719554
 13050, 455, 0.857286, 0.000130809, 5.23235, 0.0727524
 13080, 456, 0.853305, 0.000134568, 5.38273, 0.0735624
 13110, 457, 0.849211, 0.000138395, 5.53579, 0.0743848
 13140, 458, 0.845001, 0.000142287, 5.6915, 0.0752193
 13170, 459, 0.840673, 0.000146245, 5.84978, 0.0760654
 13200, 460, 0.836225, 0.000150265, 6.01059, 0.0769226
 13230, 461, 0.831656, 0.000154346, 6.17383, 0.0777904
 13260, 462, 0.826964, 0.000158486, 6.33944, 0.078668
 13290, 463, 0.822147, 0.000162683, 6.50731, 0.0795548
 13320, 464, 0.817202, 0.000166934, 6.67735, 0.08045
 13350, 465, 0.81213, 0.000171236, 6.84944, 0.0813529
 13380, 466, 0.806928, 0.000175587, 7.02347, 0.0822626
 13410, 467, 0.801594, 0.000179982, 7.19929, 0.083178
 13440, 468, 0.796128, 0.000184419, 7.37676, 0.0840983
 13470, 469, 0.790529, 0.000188893, 7.55574, 0.0850222
 13500, 470, 0.784794, 0.000193401, 7.73604, 0.0859488
 13530, 471, 0.778924, 0.000197937, 7.91749, 0.0868766
 13560, 472, 0.772918, 0.000202497, 8.0999, 0.0878043
 13590, 473, 0.766774, 0.000207076, 8.28306, 0.0887307
 13620, 474, 0.760493, 0.000211669, 8.46674, 0.0896543
 13650, 475, 0.754074, 0.000216268, 8.65073, 0.0905734
 13680, 476, 0.747517, 0.000220869, 8.83477, 0.0914865
 13710, 477, 0.740822, 0.000225465, 9.0186, 0.0923918
 13740, 478, 0.733989, 0.000230049, 9.20195, 0.0932876
 13770, 479, 0.727019, 0.000234613, 9.38454, 0.0941719
 13800, 480, 0.719913, 0.000239151, 9.56605, 0.0950429
 13830, 481, 0.71267, 0.000243655, 9.74619, 0.0958984
 13860, 482, 0.705294, 0.000248115, 9.92461, 0.0967363
 13890, 483, 0.697784, 0.000252524, 10.101, 0.0975545
 13920, 484, 0.690143, 0.000256874, 10.2749, 0.0983507
 13950, 485, 0.682372, 0.000261153, 10.4461, 0.0991226
 13980, 486, 0.674474, 0.000265354, 10.6142, 0.0998677
 14010, 487, 0.666452, 0.000269466, 10.7787, 0.100584
 14040, 488, 0.658307, 0.00027348, 10.9392, 0.101268
 14070, 489, 0.650044, 0.000277385, 11.0954, 0.101917
 14100, 490, 0.641665, 0.00028117, 11.2468, 0.10253
 14130, 491, 0.633175, 0.000284824, 11.393, 0.103104
 14160, 492, 0.624577, 0.000288338, 11.5335, 0.103634
 14190, 493, 0.615876, 0.000291699, 11.668, 0.10412
 14220, 494, 0.607077, 0.000294897, 11.7959, 0.104558
 14250, 495, 0.598184, 0.00029792, 11.9168, 0.104946
 14280, 496, 0.589203, 0.000300757, 12.0303, 0.10528
 14310, 497, 0.580141, 0.000303397, 12.1359, 0.105558
 14340, 498, 0.571002, 0.000305827, 12.2331, 0.105777
 14370, 499, 0.561793, 0.000308038, 12.3215, 0.105935
 14400, 500, 0.552522, 0.000310018, 12.4007, 0.106029
 14430, 501, 0.543194, 0.000311756, 12.4702, 0.106057
 14460, 502, 0.533819, 0.000313242, 12.5297, 0.106015
 14490, 503, 0.524403, 0.000314464, 12.5786, 0.105902
 14520, 504, 0.514954, 0.000315415, 12.6166, 0.105715
 14550, 505, 0.505481, 0.000316083, 12.6433, 0.105453
 14580, 506, 0.495992, 0.00031646, 12.6584, 0.105113
 14610, 507, 0.486496, 0.000316537, 12.6615, 0.104693
 14640, 508, 0.477002, 0.000316308, 12.6523, 0.104193
 14670, 509, 0.467521, 0.000315764, 12.6306, 0.103609
 14700, 510, 0.45806, 0.0003149, 12.596, 0.102942
 14730, 511, 0.44863, 0.000313711, 12.5484, 0.10219
 14760, 512, 0.439241, 0.00031219, 12.4876, 0.101353
 14790, 513, 0.429902, 0.000310336, 12.4135, 0.10043
 14820, 514, 0.420624, 0.000308146, 12.3259, 0.0994199
 14850, 515, 0.411416, 0.000305619, 12.2248, 0.0983245
 14880, 516, 0.40229, 0.000302753, 12.1101, 0.0971433
 14910, 517, 0.393255, 0.000299551, 11.9821, 0.0958773
 14940, 518, 0.38432, 0.000296015, 11.8406, 0.0945275
 14970, 519, 0.375497, 0.000292148, 11.6859, 0.0930953
 15000, 520, 0.366795, 0.000287954, 11.5182, 0.0915824
 15030, 521, 0.358223, 0.000283442, 11.3377, 0.0899911
 15060, 522, 0.349791, 0.000278617, 11.1447, 0.0883237
 15090, 523, 0.341509, 0.00027349, 10.9396, 0.0865831
 15120, 524, 0.333385, 0.00026807, 10.7228, 0.0847724
 15150, 525, 0.325428, 0.000262369, 10.4948, 0.0828952
 15180, 526, 0.317646, 0.000256402, 10.2561, 0.0809554
 15210, 527, 0.310046, 0.000250181, 10.0073, 0.078957
 15240, 528, 0.302637, 0.000243724, 9.74895, 0.0769049
 15270, 529, 0.295425, 0.000237046, 9.48185, 0.0748035
 15300, 530, 0.288416, 0.000230167, 9.20668, 0.0726582
 15330, 531, 0.281617, 0.000223105, 8.92421, 0.0704742
 15360, 532, 0.275032, 0.000215881, 8.63525, 0.0682571
 15390, 533, 0.268666, 0.000208516, 8.34065, 0.066013
 15420, 534, 0.262522, 0.000201032, 8.04127, 0.0637474
 15450, 535, 0.256605, 0.000193451, 7.73803, 0.0614667
 15480, 536, 0.250916, 0.000185796, 7.43185, 0.0591771
 15510, 537, 0.245457, 0.000178091, 7.12366, 0.0568849
 15540, 538, 0.240231, 0.00017036, 6.81441, 0.0545964
 15570, 539, 0.235236, 0.000162626, 6.50505, 0.0523178
 15600, 540, 0.230473, 0.000154913, 6.19653, 0.0500556
 15630, 541, 0.225941, 0.000147244, 5.88978, 0.0478157
 15660, 542, 0.221638, 0.000139643, 5.58572, 0.0456042
 15690, 543, 0.217561, 0.000132131, 5.28525, 0.0434269
 15720, 544, 0.213709, 0.000124731, 4.98924, 0.0412894
 15750, 545, 0.210076, 0.000117463, 4.69851, 0.0391971
 15780, 546, 0.20666, 0.000110346, 4.41385, 0.037155
 15810, 547, 0.203454, 0.0001034, 4.13601, 0.0351676
 15840, 548, 0.200454, 9.6642e-05, 3.86568, 0.0332397
 15870, 549, 0.197653, 9.00872e-05, 3.60349, 0.0313746
 15900, 550, 0.195046, 8.37502e-05, 3.35001, 0.0295762
 15930, 551, 0.192626, 7.76437e-05, 3.10575, 0.0278475
 15960, 552, 0.190385, 7.17785e-05, 2.87114, 0.0261909
 15990, 553, 0.188317, 6.61641e-05, 2.64656, 0.0246087
 16020, 554, 0.186413, 6.08078e-05, 2.43231, 0.0231025
 16050, 555, 0.184666, 5.57153e-05, 2.22861, 0.0216734
 16080, 556, 0.183068, 5.08905e-05, 2.03562, 0.0203219
 16110, 557, 0.18161, 4.63354e-05, 1.85342, 0.0190484
 16140, 558, 0.180285, 4.20506e-05, 1.68202, 0.0178527
 16170, 559, 0.179084, 3.80347e-05, 1.52139, 0.0167338
 16200, 560, 0.178, 3.42849e-05, 1.37139, 0.0156909
 16230, 561, 0.177025, 3.07967e-05, 1.23187, 0.0147221
 16260, 562, 0.17615, 2.75644e-05, 1.10258, 0.0138259
 16290, 563, 0.175368, 2.45811e-05, 0.983246, 0.0129998
 16320, 564, 0.174673, 2.18386e-05, 0.873544, 0.0122415
 16350, 565, 0.174056, 1.93277e-05, 0.773107, 0.0115482
 16380, 566, 0.173511, 1.70384e-05, 0.681534, 0.0109168
 16410, 567, 0.173031, 1.49599e-05, 0.598397, 0.0103445
 16440, 568, 0.172611, 1.30811e-05, 0.523244, 0.00982736
 16470, 569, 0.172244, 1.13902e-05, 0.455607, 0.00936283
 16500, 570, 0.171926, 9.8752e-06, 0.395008, 0.00894702
 16530, 571, 0.17165, 8.52409e-06, 0.340964, 0.00857651
 16560, 572, 0.171413, 7.32474e-06, 0.29299, 0.00824788
 16590, 573, 0.171209, 6.26519e-06, 0.250608, 0.00795804
 16620, 574, 0.171036, 5.33368e-06, 0.213347, 0.00770335
 16650, 575, 0.170888, 4.51882e-06, 0.180753, 0.00748084
 16680, 576, 0.170764, 3.80961e-06, 0.152384, 0.00728725
 16710, 577, 0.170659, 3.19553e-06, 0.127821, 0.00711965
 16740, 578, 0.170571, 2.66664e-06, 0.106666, 0.00697574
 16770, 579, 0.170498, 2.21357e-06, 0.0885428, 0.0068524
 16800, 580, 0.170438, 1.82759e-06, 0.0731035, 0.00674733
 16830, 581, 0.170388, 1.5006e-06, 0.0600241, 0.00665855
 16860, 582, 0.170347, 1.22519e-06, 0.0490074, 0.00658366
 16890, 583, 0.170314, 9.94562e-07, 0.0397825, 0.00652101
 16920, 584, 0.170287, 8.02601e-07, 0.0321041, 0.00646907
 16950, 585, 0.170265, 6.43795e-07, 0.0257518, 0.00642598
 16980, 586, 0.170248, 5.13237e-07, 0.0205295, 0.00639061
 17010, 587, 0.170234, 4.06584e-07, 0.0162634, 0.00636178
 17040, 588, 0.170223, 3.20025e-07, 0.012801, 0.00633833
 17070, 589, 0.170215, 2.5024e-07, 0.0100096, 0.00631947
 17100, 590, 0.170208, 1.94359e-07, 0.00777437, 0.00630439
 17130, 591, 0.170203, 1.49922e-07, 0.00599688, 0.00629234
 17160, 592, 0.170199, 1.14834e-07, 0.00459337, 0.00628284
 17190, 593, 0.170196, 8.73286e-08, 0.00349314, 0.0062755
 17220, 594, 0.170194, 6.59252e-08, 0.00263701, 0.00626969
 17250, 595, 0.170192, 4.93954e-08, 0.00197582, 0.00626522
 17280, 596, 0.170191, 3.67274e-08, 0.0014691, 0.00626186
 17310, 597, 0.17019, 2.70952e-08, 0.00108381, 0.00625925
 17340, 598, 0.170189, 1.98297e-08, 0.000793186, 0.00625727
 17370, 599, 0.170189, 1.43942e-08, 0.000575766, 0.00625575
 17400, 600, 0.170188, 1.03616e-08, 0.000414465, 0.00625468
 17430, 601, 0.170188, 7.39539e-09, 0.000295816, 0.00625387
 17460, 602, 0.170188, 5.23247e-09, 0.000209299, 0.00625335
 17490, 603, 0.170188, 3.6693e-09, 0.000146772, 0.00625306
 17520, 604, 0.170188, 2.54981e-09, 0.000101992, 0.0062526
 17550, 605, 0.170188, 1.75548e-09, 7.02191e-05, 0.0062524
 17580, 606, 0.170188, 1.19718e-09, 4.78873e-05, 0.00625226
 17610, 607, 0.170188, 8.08565e-10, 3.23426e-05, 0.0062521
 17640, 608, 0.170188, 5.40716e-10, 2.16286e-05, 0.00625208
 17670, 609, 0.170188, 3.57958e-10, 1.43183e-05, 0.00625208
 17700, 610, 0.170188, 2.34537e-10, 9.38148e-06, 0.00625193
 17730, 611, 0.170187, 1.52059e-10, 6.08235e-06, 0.0062519
 17760, 612, 0.170187, 9.75296e-11, 3.90119e-06, 0.00625199
 17790, 613, 0.170187, 6.18712e-11, 2.47485e-06, 0.00625198
 17820, 614, 0.170187, 3.88121e-11, 1.55248e-06, 0.00625192
 17850, 615, 0.170187, 2.40697e-11, 9.62786e-07, 0.00625197
 17880, 616, 0.170187, 1.47535e-11, 5.90138e-07, 0.00625192
 17910, 617, 0.170187, 8.93579e-12, 3.57432e-07, 0.00625181
 17940, 618, 0.170187, 5.34662e-12, 2.13865e-07, 0.00625192
 17970, 619, 0.170187, 3.15954e-12, 1.26382e-07, 0.006252
 18000, 620, 0.170187, 1.84355e-12, 7.37419e-08, 0.006252
 18030, 621, 0.170187, 1.06184e-12, 4.24734e-08, 0.00625189
 18060, 622, 0.170187, 6.03554e-13, 2.41422e-08, 0.0062519
 18090, 623, 0.170187, 3.38465e-13, 1.35386e-08, 0.00625203
 18120, 624, 0.170187, 1.87211e-13, 7.48843e-09, 0.00625199
 18150, 625, 0.170187, 1.02104e-13, 4.08416e-09, 0.00625193
 18180, 626, 0.170187, 5.48943e-14, 2.19577e-09, 0.00625198
 18210, 627, 0.170187, 2.90841e-14, 1.16337e-09, 0.00625194
 18240, 628, 0.170187, 1.5181e-14, 6.07241e-10, 0.006252
 18270, 629, 0.170187, 7.80423e-15, 3.12169e-10, 0.00625198
 18300, 630, 0.170187, 3.95012e-15, 1.58005e-10, 0.0062519
 18330, 631, 0.170187, 1.96791e-15, 7.87164e-11, 0.00625199
 18360, 632, 0.170187, 9.64665e-16, 3.85866e-11, 0.00625196
 18390, 633, 0.170187, 4.65139e-16, 1.86056e-11, 0.00625186
 18420, 634, 0.170187, 2.20537e-16, 8.82147e-12, 0.00625194
 18450, 635, 0.170187, 1.02784e-16, 4.11135e-12, 0.00625193
 18480, 636, 0.170187, 4.70722e-17, 1.88289e-12, 0.006252
 18510, 637, 0.170187, 2.11764e-17, 8.47054e-13, 0.00625189
 18540, 638, 0.170187, 9.35469e-18, 3.74188e-13, 0.00625199
 18570, 639, 0.170187, 4.05642e-18, 1.62257e-13, 0.00625187
 18600, 640, 0.170187, 1.72596e-18, 6.90386e-14, 0.00625194
 18630, 641, 0.170187, 7.20335e-19, 2.88134e-14, 0.00625193
 18660, 642, 0.170187, 2.94772e-19, 1.17909e-14, 0.00625198
 18690, 643, 0.170187, 1.18228e-19, 4.7291e-15, 0.00625195
 18720, 644, 0.170187, 4.64581e-20, 1.85832e-15, 0.00625187
 18750, 645, 0.170187, 1.78789e-20, 7.15156e-16, 0.00625188
 18780, 646, 0.170187, 6.73566e-21, 2.69426e-16, 0.00625195
 18810, 647, 0.170187, 2.48313e-21, 9.93252e-17, 0.00625189
 18840, 648, 0.170187, 8.95398e-22, 3.58159e-17, 0.00625198
 18870, 649, 0.170187, 3.15678e-22, 1.26271e-17, 0.00625193
 18900, 650, 0.170187, 1.08766e-22, 4.35066e-18, 0.00625205
 18930, 651, 0.170187, 3.6608e-23, 1.46432e-18, 0.00625196
 18960, 652, 0.170187, 1.20307e-23, 4.81228e-19, 0.00625185
 18990, 653, 0.170187, 3.8587e-24, 1.54348e-19, 0.00625189
 19020, 654, 0.170187, 1.20733e-24, 4.82931e-20, 0.00625195
 19050, 655, 0.170187, 3.68329e-25, 1.47332e-20, 0.00625189
 19080, 656, 0.170187, 1.09513e-25, 4.38053e-21, 0.00625191
 19110, 657, 0.170187, 3.17178e-26, 1.26871e-21, 0.00625191
 19140, 658, 0.170187, 8.94393e-27, 3.57757e-22, 0.00625186
 19170, 659, 0.170187, 2.45428e-27, 9.81712e-23, 0.00625192
 19200, 660, 0.170187, 6.55037e-28, 2.62015e-23, 0.00625196
 19230, 661, 0.170187, 1.69952e-28, 6.7981e-24, 0.00625199
 19260, 662, 0.170187, 4.28428e-29, 1.71371e-24, 0.00625186
 19290, 663, 0.170187, 1.04877e-29, 4.19509e-25, 0.00625191
 19320, 664, 0.170187, 2.49172e-30, 9.96688e-26, 0.00625191
 19350, 665, 0.170187, 5.74236e-31, 2.29694e-26, 0.006252
 19380, 666, 0.170187, 1.28294e-31, 5.13177e-27, 0.00625194
 19410, 667, 0.170187, 2.77715e-32, 1.11086e-27, 0.00625191
 19440, 668, 0.170187, 5.8212e-33, 2.32848e-28, 0.00625189
 19470, 669, 0.170187, 1.18083e-33, 4.72332e-29, 0.00625196
 19500, 670, 0.170187, 2.31665e-34, 9.26661e-30, 0.00625197
 19530, 671, 0.170187, 4.39305e-35, 1.75722e-30, 0.00625187
 19560, 672, 0.170187, 8.04696e-36, 3.21878e-31, 0.00625192
 19590, 673, 0.170187, 1.42292e-36, 5.69169e-32, 0.00625191
 19620, 674, 0.170187, 2.42736e-37, 9.70945e-33, 0.00625192
 19650, 675, 0.170187, 3.99215e-38, 1.59686e-33, 0.00625196
 19680, 676, 0.170187, 0.0000000E+000, 2.53028e-34, 0.00625191
 19710, 677, 0.170187, 0.0000000E+000, 3.86015e-35, 0.00625197
 19740, 678, 0.170187, 0.0000000E+000, 5.66601e-36, 0.00625197
 19770, 679, 0.170187, 0.0000000E+000, 7.99619e-37, 0.00625195
 19800, 680, 0.170187, 0.0000000E+000, 1.08421e-37, 0.00625189
 19830, 681, 0.170187, 0.0000000E+000, 1.41141e-38, 0.00625184
 19860, 682, 0.170187, 0.0000000E+000, 0.0000000E+000, 0.00625187
 19890, 683, 0.170187, 0.0000000E+000, 0.0000000E+000, 0.0062519
 19920, 684, 0.170187, 0.0000000E+000, 0.0000000E+000, 0.00625191
 19950, 685, 0.170187, 0.0000000E+000, 0.0000000E+000, 0.00625187
 19980, 686, 0.170187, 0.0000000E+000, 0.0000000E+000, 0.00625193
 20010, 687, 0.170187, 0.0000000E+000, 0.0000000E+000, 0.0062519
 20040, 688, 0.170187, 0.0000000E+000, 0.0000000E+000, 0.00625192
 20070, 689, 0.170187, 0.0000000E+000, 0.0000000E+000, 0.00625198
 20100, 690, 0.170187, 0.0000000E+000, 0.0000000E+000, 0.00625193
 20130, 691, 0.170187, 0.0000000E+000, 0.0000000E+000, 0.00625197
 20160, 692, 0.170187, 0.0000000E+000, 0.0000000E+000, 0.00625202
 20190, 693, 0.170187, 0.0000000E+000, 0.0000000E+000, 0.00625189
 20220, 694, 0.170187, 0.0000000E+000, 0.0000000E+000, 0.00625194
 20250, 695, 0.170187, 0.0000000E+000, 0.0000000E+000, 0.00625197
 20280, 696, 0.170187, 0.0000000E+000, 0.0000000E+000, 0.00625192
 20310, 697, 0.170187, 0.0000000E+000, 0.0000000E+000, 0.00625187
 20340, 698, 0.170187, 0.0000000E+000, 0.0000000E+000, 0.00625189
 20370, 699, 0.170187, 0.0000000E+000, 0.0000000E+000, 0.00625196
 20400, 700, 0.170187, 0.0000000E+000, 0.0000000E+000, 0.00625193
 20430, 701, 0.170187, 0.0000000E+000, 0.0000000E+000, 0.00625196
 20460, 702, 0.170187, 0.0000000E+000, 0.0000000E+000, 0.00625189
 20490, 703, 0.170187, 0.0000000E+000, 0.0000000E+000, 0.00625192
 20520, 704, 0.170187, 0.0000000E+000, 0.0000000E+000, 0.00625192
 20550, 705, 0.170187, 0.0000000E+000, 0.0000000E+000, 0.0062519
 20580, 706, 0.170187, 0.0000000E+000, 0.0000000E+000, 0.006252
 20610, 707, 0.170187, 0.0000000E+000, 0.0000000E+000, 0.00625184
 20640, 708, 0.170187, 0.0000000E+000, 0.0000000E+000, 0.00625194
 20670, 709, 0.170187, 0.0000000E+000, 0.0000000E+000, 0.00625198
 20700, 710, 0.170187, 0.0000000E+000, 0.0000000E+000, 0.00625196
 20730, 711, 0.170187, 0.0000000E+000, 0.0000000E+000, 0.00625194
 20760, 712, 0.170187, 0.0000000E+000, 0.0000000E+000, 0.00625201
 20790, 713, 0.170187, 0.0000000E+000, 0.0000000E+000, 0.00625191
 20820, 714, 0.170187, 0.0000000E+000, 0.0000000E+000, 0.00625193
 20850, 715, 0.170187, 0.0000000E+000, 0.0000000E+000, 0.00625191
 20880, 716, 0.170187, 0.0000000E+000, 0.0000000E+000, 0.00625191
 20910, 717, 0.170187, 0.0000000E+000, 0.0000000E+000, 0.00625188
 20940, 718, 0.170187, 0.0000000E+000, 0.0000000E+000, 0.00625189
 20970, 719, 0.170187, 0.0000000E+000, 0.0000000E+000, 0.00625192
 21000, 720, 0.170187, 0.0000000E+000, 0.0000000E+000, 0.00625197
 21030, 721, 0.170187, 0.0000000E+000, 0.0000000E+000, 0.00625193
 21060, 722, 0.170187, 0.0000000E+000, 0.0000000E+000, 0.00625189
 21090, 723, 0.170187, 0.0000000E+000, 0.0000000E+000, 0.00625196
 21120, 724, 0.170187, 0.0000000E+000, 0.0000000E+000, 0.00625196
 21150, 725, 0.170187, 0.0000000E+000, 0.0000000E+000, 0.00625196
 21180, 726, 0.170187, 0.0000000E+000, 0.0000000E+000, 0.00625193
 21210, 727, 0.170187, 0.0000000E+000, 0.0000000E+000, 0.00625195
 21240, 728, 0.170187, 0.0000000E+000, 0.0000000E+000, 0.00625193
 21270, 729, 0.170187, 0.0000000E+000, 0.0000000E+000, 0.00625191
 21300, 730, 0.170187, 0.0000000E+000, 0.0000000E+000, 0.00625198
 21330, 731, 0.170187, 0.0000000E+000, 0.0000000E+000, 0.0062519
 21360, 732, 0.170187, 0.0000000E+000, 0.0000000E+000, 0.00625197
 21390, 733, 0.170187, 0.0000000E+000, 0.0000000E+000, 0.00625203
 21420, 734, 0.170187, 0.0000000E+000, 0.0000000E+000, 0.00625196
 21450, 735, 0.170187, 0.0000000E+000, 0.0000000E+000, 0.00625195
 21480, 736, 0.170187, 0.0000000E+000, 0.0000000E+000, 0.00625181
 21510, 737, 0.170187, 0.0000000E+000, 0.0000000E+000, 0.00625192
 21540, 738, 0.170187, 0.0000000E+000, 0.0000000E+000, 0.0062519
 21570, 739, 0.170187, 0.0000000E+000, 0.0000000E+000, 0.00625192
 21600, 740, 0.170187, 0.0000000E+000, 0.0000000E+000, 0.00625196
 21630, 741, 0.170187, 0.0000000E+000, 0.0000000E+000, 0.00625197
 21660, 742, 0.170187, 0.0000000E+000, 0.0000000E+000, 0.00625194
 21690, 743, 0.170187, 0.0000000E+000, 0.0000000E+000, 0.006252
 21720, 744, 0.170187, 0.0000000E+000, 0.0000000E+000, 0.00625183
 21750, 745, 0.170187, 0.0000000E+000, 0.0000000E+000, 0.00625191
 21780, 746, 0.170187, 0.0000000E+000, 0.0000000E+000, 0.00625188
 21810, 747, 0.170187, 0.0000000E+000, 0.0000000E+000, 0.00625191
 21840, 748, 0.170187, 0.0000000E+000, 0.0000000E+000, 0.00625192
 21870, 749, 0.170187, 0.0000000E+000, 0.0000000E+000, 0.00625189
 21900, 750, 0.170187, 0.0000000E+000, 0.0000000E+000, 0.00625193
 21930, 751, 0.170187, 0.0000000E+000, 0.0000000E+000, 0.00625191
 21960, 752, 0.170187, 0.0000000E+000, 0.0000000E+000, 0.00625195
 21990, 753, 0.170187, 0.0000000E+000, 0.0000000E+000, 0.00625192
 22020, 754, 0.170187, 0.0000000E+000, 0.0000000E+000, 0.00625202
 22050, 755, 0.170187, 0.0000000E+000, 0.0000000E+000, 0.0062519
 22080, 756, 0.170187, 0.0000000E+000, 0.0000000E+000, 0.00625193
 22110, 757, 0.170187, 0.0000000E+000, 0.0000000E+000, 0.00625195
 22140, 758, 0.170187, 0.0000000E+000, 0.0000000E+000, 0.00625175
 22170, 759, 0.170187, 0.0000000E+000, 0.0000000E+000, 0.00625195
 22200, 760, 0.170187, 0.0000000E+000, 0.0000000E+000, 0.00625202
 22230, 761, 0.170187, 0.0000000E+000, 0.0000000E+000, 0.00625192
 22260, 762, 0.170187, 0.0000000E+000, 0.0000000E+000, 0.00625199
 22290, 763, 0.170187, 0.0000000E+000, 0.0000000E+000, 0.00625199
 22320, 764, 0.170187, 0.0000000E+000, 0.0000000E+000, 0.00625203
 22350, 765, 0.170187, 0.0000000E+000, 0.0000000E+000, 0.00625177
 22380, 766, 0.170187, 0.0000000E+000, 0.0000000E+000, 0.00625197
 22410, 767, 0.170187, 0.0000000E+000, 0.0000000E+000, 0.00625191
 22440, 768, 0.170187, 0.0000000E+000, 0.0000000E+000, 0.00625191
 22470, 769, 0.170187, 0.0000000E+000, 0.0000000E+000, 0.00625204
 22500, 770, 0.170187, 0.0000000E+000, 0.0000000E+000, 0.00625193
 22530, 771, 0.170187, 0.0000000E+000, 0.0000000E+000, 0.0062519
 22560, 772, 0.170187, 0.0000000E+000, 0.0000000E+000, 0.00625193
 22590, 773, 0.170187, 0.0000000E+000, 0.0000000E+000, 0.00625203
 22620, 774, 0.170187, 0.0000000E+000, 0.0000000E+000, 0.00625193
 22650, 775, 0.170187, 0.0000000E+000, 0.0000000E+000, 0.00625191
 22680, 776, 0.170187, 0.0000000E+000, 0.0000000E+000, 0.00625193
 22710, 777, 0.170187, 0.0000000E+000, 0.0000000E+000, 0.0062519
 22740, 778, 0.170187, 0.0000000E+000, 0.0000000E+000, 0.00625182
 22770, 779, 0.170187, 0.0000000E+000, 0.0000000E+000, 0.00625194
 22800, 780, 0.170187, 0.0000000E+000, 0.0000000E+000, 0.00625197
 22830, 781, 0.170187, 0.0000000E+000, 0.0000000E+000, 0.00625188
 22860, 782, 0.170187, 0.0000000E+000, 0.0000000E+000, 0.00625205
 22890, 783, 0.170187, 0.0000000E+000, 0.0000000E+000, 0.0062519
 22920, 784, 0.170187, 0.0000000E+000, 0.0000000E+000, 0.00625192
 22950, 785, 0.170187, 0.0000000E+000, 0.0000000E+000, 0.00625206
 22980, 786, 0.170187, 0.0000000E+000, 0.0000000E+000, 0.00625196
 23010, 787, 0.170187, 0.0000000E+000, 0.0000000E+000, 0.00625197
 23040, 788, 0.170187, 0.0000000E+000, 0.0000000E+000, 0.00625206
 23070, 789, 0.170187, 0.0000000E+000, 0.0000000E+000, 0.00625198
 23100, 790, 0.170187, 0.0000000E+000, 0.0000000E+000, 0.00625209
 23130, 791, 0.170187, 0.0000000E+000, 0.0000000E+000, 0.00625197
 23160, 792, 0.170187, 0.0000000E+000, 0.0000000E+000, 0.0062519
 23190, 793, 0.170187, 0.0000000E+000, 0.0000000E+000, 0.00625196
 23220, 794, 0.170187, 0.0000000E+000, 0.0000000E+000, 0.00625199
 23250, 795, 0.170187, 0.0000000E+000, 0.0000000E+000, 0.0062519
 23280, 796, 0.170187, 0.0000000E+000, 0.0000000E+000, 0.00625196
 23310, 797, 0.170187, 0.0000000E+000, 0.0000000E+000, 0.00625194
 23340, 798, 0.170187, 0.0000000E+000, 0.0000000E+000, 0.00625191
 23370, 799, 0.170187, 0.0000000E+000, 0.0000000E+000, 0.0062519
 23400, 800, 0.170187, 0.0000000E+000, 0.0000000E+000, 0.00625197