File: examples/Birch_TGA_Example/Work/Cone_4cd8bha9/birch_tga_1step_5_tga.csv
s,C,g/g,1/s,W/g,W/g
Time,Temp,Mass,MLR,MCC,DSC
 12, 21.0003, 0.999993, 6.11641e-07, 6.95759e-16, 0.121505
 24, 22.0003, 0.999985, 7.02365e-07, 8.57322e-16, 0.121708
 36, 23.0003, 0.999976, 8.05766e-07, 1.05491e-15, 0.121938
 48, 24.0003, 0.999966, 9.23498e-07, 1.29623e-15, 0.122201
 60, 25.0003, 0.999954, 1.05742e-06, 1.59056e-15, 0.1225
 72, 26.0003, 0.99994, 1.2096e-06, 1.94904e-15, 0.12284
 84, 27.0003, 0.999925, 1.38236e-06, 2.38509e-15, 0.123225
 96, 28.0003, 0.999907, 1.57829e-06, 2.91478e-15, 0.123662
 108, 29.0003, 0.999887, 1.80028e-06, 3.55739e-15, 0.124158
 120, 30.0003, 0.999864, 2.05153e-06, 4.33596e-15, 0.124718
 132, 31.0003, 0.999838, 2.33562e-06, 5.27806e-15, 0.125352
 144, 32.0003, 0.999808, 2.65649e-06, 6.41658e-15, 0.126067
 156, 33.0003, 0.999774, 3.01853e-06, 7.79074e-15, 0.126875
 168, 34.0003, 0.999735, 3.42658e-06, 9.44724e-15, 0.127785
 180, 35.0003, 0.999691, 3.88597e-06, 1.14416e-14, 0.128809
 192, 36.0003, 0.999641, 4.40258e-06, 1.38399e-14, 0.12996
 204, 37.0003, 0.999585, 4.98285e-06, 1.67203e-14, 0.131254
 216, 38.0003, 0.999522, 5.63384e-06, 2.01757e-14, 0.132705
 228, 39.0003, 0.99945, 6.36325e-06, 2.43159e-14, 0.13433
 240, 40.0003, 0.999369, 7.17944e-06, 2.92707e-14, 0.136149
 252, 41.0003, 0.999277, 8.09149e-06, 3.51936e-14, 0.13818
 264, 42.0003, 0.999174, 9.10918e-06, 4.22656e-14, 0.140447
 276, 43.0003, 0.999058, 1.0243e-05, 5.06999e-14, 0.142972
 288, 44.0003, 0.998928, 1.15042e-05, 6.07475e-14, 0.145781
 300, 45.0003, 0.998781, 1.29047e-05, 7.27037e-14, 0.148898
 312, 46.0003, 0.998617, 1.4457e-05, 8.69151e-14, 0.152354
 324, 47.0003, 0.998434, 1.61741e-05, 1.03789e-13, 0.156175
 336, 48.0003, 0.998228, 1.80696e-05, 1.23801e-13, 0.160392
 348, 49.0003, 0.997999, 2.01572e-05, 1.47511e-13, 0.165036
 360, 50.0003, 0.997744, 2.24507e-05, 1.7557e-13, 0.170136
 372, 51.0003, 0.997459, 2.49637e-05, 2.08744e-13, 0.175724
 384, 52.0003, 0.997144, 2.77091e-05, 2.4792e-13, 0.181825
 396, 53.0003, 0.996793, 3.06987e-05, 2.9414e-13, 0.188468
 408, 54.0003, 0.996406, 3.39427e-05, 3.48611e-13, 0.195673
 420, 55.0003, 0.995978, 3.74491e-05, 4.12741e-13, 0.203458
 432, 56.0003, 0.995506, 4.12227e-05, 4.88169e-13, 0.211832
 444, 57.0003, 0.994987, 4.52644e-05, 5.76793e-13, 0.220796
 456, 58.0003, 0.994418, 4.95698e-05, 6.80821e-13, 0.230339
 468, 59.0003, 0.993797, 5.41286e-05, 8.02808e-13, 0.240437
 480, 60.0003, 0.993118, 5.89226e-05, 9.45716e-13, 0.251048
 492, 61.0003, 0.992381, 6.39249e-05, 1.11297e-12, 0.262109
 504, 62.0003, 0.991583, 6.90982e-05, 1.30854e-12, 0.273537
 516, 63.0003, 0.990723, 7.43934e-05, 1.53698e-12, 0.285217
 528, 64.0003, 0.989798, 7.97484e-05, 1.80359e-12, 0.297011
 540, 65.0002, 0.988809, 8.50867e-05, 2.11444e-12, 0.308745
 552, 66.0002, 0.987756, 9.03173e-05, 2.47654e-12, 0.320212
 564, 67.0002, 0.986642, 9.53341e-05, 2.89796e-12, 0.331174
 576, 68.0002, 0.985469, 0.000100017, 3.38797e-12, 0.341359
 588, 69.0002, 0.984243, 0.000104232, 3.95721e-12, 0.350468
 600, 70.0002, 0.98297, 0.000107836, 4.61792e-12, 0.358178
 612, 71.0002, 0.981658, 0.000110681, 5.38411e-12, 0.364157
 624, 72.0002, 0.980317, 0.000112618, 6.27184e-12, 0.36807
 636, 73.0002, 0.97896, 0.000113505, 7.2995e-12, 0.369604
 648, 74.0002, 0.977598, 0.000113219, 8.48813e-12, 0.368478
 660, 75.0002, 0.976247, 0.000111658, 9.86177e-12, 0.364475
 672, 76.0002, 0.974924, 0.000108763, 1.14479e-11, 0.35746
 684, 77.0002, 0.973643, 0.000104517, 1.32777e-11, 0.347403
 696, 78.0002, 0.97242, 9.89605e-05, 1.53871e-11, 0.334403
 708, 79.0002, 0.971272, 9.21961e-05, 1.78167e-11, 0.318694
 720, 80.0003, 0.970212, 8.43899e-05, 2.06127e-11, 0.300659
 732, 81.0003, 0.96925, 7.57684e-05, 2.38279e-11, 0.280815
 744, 82.0003, 0.968396, 6.66095e-05, 2.75222e-11, 0.259791
 756, 83.0003, 0.967653, 5.72266e-05, 3.17635e-11, 0.2383
 768, 84.0003, 0.967022, 4.7947e-05, 3.66291e-11, 0.217083
 780, 85.0003, 0.9665, 3.90874e-05, 4.22063e-11, 0.196853
 792, 86.0003, 0.966081, 3.09276e-05, 4.85943e-11, 0.178244
 804, 87.0003, 0.965755, 2.36877e-05, 5.59054e-11, 0.161749
 816, 88.0003, 0.965509, 1.75105e-05, 6.42665e-11, 0.147686
 828, 89.0003, 0.96533, 1.24535e-05, 7.38213e-11, 0.136181
 840, 90.0003, 0.965205, 8.49205e-06, 8.47319e-11, 0.127175
 852, 91.0004, 0.965122, 5.53148e-06, 9.71814e-11, 0.120447
 864, 92.0004, 0.965069, 3.42787e-06, 1.11376e-10, 0.11567
 876, 93.0004, 0.965037, 2.01216e-06, 1.2755e-10, 0.112455
 888, 94.0004, 0.965019, 1.11352e-06, 1.45964e-10, 0.110416
 900, 95.0004, 0.965009, 5.77975e-07, 1.66914e-10, 0.109201
 912, 96.0004, 0.965004, 2.79825e-07, 1.90733e-10, 0.108525
 924, 97.0004, 0.965002, 1.25613e-07, 2.17793e-10, 0.108175
 936, 98.0004, 0.965001, 5.19441e-08, 2.48515e-10, 0.108008
 948, 99.0004, 0.965, 1.965e-08, 2.8337e-10, 0.107935
 960, 100, 0.965, 6.74894e-09, 3.22886e-10, 0.107906
 972, 101, 0.965, 2.08747e-09, 3.67656e-10, 0.107895
 984, 102, 0.965, 5.76376e-10, 4.18343e-10, 0.107892
 996, 103, 0.965, 1.40735e-10, 4.75692e-10, 0.107891
 1008, 104, 0.965, 3.00871e-11, 5.40534e-10, 0.10789
 1020, 105, 0.965, 5.57934e-12, 6.138e-10, 0.10789
 1032, 106, 0.965, 8.98115e-13, 6.96529e-10, 0.10789
 1044, 107, 0.965, 1.37502e-13, 7.89883e-10, 0.10789
 1056, 108, 0.965, 3.54974e-14, 8.95158e-10, 0.10789
 1068, 109, 0.965, 2.65449e-14, 1.0138e-09, 0.10789
 1080, 110, 0.965, 2.87742e-14, 1.14742e-09, 0.10789
 1092, 111, 0.965, 3.24506e-14, 1.29782e-09, 0.10789
 1104, 112, 0.965, 3.66749e-14, 1.46699e-09, 0.10789
 1116, 113, 0.965, 4.14289e-14, 1.65716e-09, 0.10789
 1128, 114, 0.965, 4.677e-14, 1.8708e-09, 0.10789
 1140, 115, 0.965, 5.27667e-14, 2.11067e-09, 0.10789
 1152, 116, 0.965, 5.94953e-14, 2.37981e-09, 0.10789
 1164, 117, 0.965, 6.70407e-14, 2.68163e-09, 0.10789
 1176, 118, 0.965, 7.54969e-14, 3.01988e-09, 0.10789
 1188, 119, 0.965, 8.49683e-14, 3.39873e-09, 0.10789
 1200, 120, 0.965, 9.55704e-14, 3.82282e-09, 0.10789
 1212, 121, 0.965, 1.07431e-13, 4.29725e-09, 0.10789
 1224, 122, 0.965, 1.20693e-13, 4.82771e-09, 0.10789
 1236, 123, 0.965, 1.35512e-13, 5.42046e-09, 0.10789
 1248, 124, 0.965, 1.52061e-13, 6.08244e-09, 0.10789
 1260, 125, 0.965, 1.70533e-13, 6.82132e-09, 0.10789
 1272, 126, 0.965, 1.91139e-13, 7.64556e-09, 0.10789
 1284, 127, 0.965, 2.14113e-13, 8.56451e-09, 0.10789
 1296, 128, 0.965, 2.39712e-13, 9.58849e-09, 0.10789
 1308, 129, 0.965, 2.68222e-13, 1.07289e-08, 0.10789
 1320, 130, 0.965, 2.99954e-13, 1.19982e-08, 0.10789
 1332, 131, 0.965, 3.35256e-13, 1.34102e-08, 0.10789
 1344, 132, 0.965, 3.74506e-13, 1.49802e-08, 0.10789
 1356, 133, 0.965, 4.18124e-13, 1.67249e-08, 0.10789
 1368, 134, 0.965, 4.66569e-13, 1.86628e-08, 0.10789
 1380, 135, 0.965, 5.20347e-13, 2.08139e-08, 0.10789
 1392, 136, 0.965, 5.80015e-13, 2.32006e-08, 0.10789
 1404, 137, 0.965, 6.46182e-13, 2.58473e-08, 0.10789
 1416, 138, 0.965, 7.1952e-13, 2.87808e-08, 0.10789
 1428, 139, 0.965, 8.00764e-13, 3.20305e-08, 0.10789
 1440, 140, 0.965, 8.90719e-13, 3.56288e-08, 0.10789
 1452, 141, 0.965, 9.9027e-13, 3.96108e-08, 0.10789
 1464, 142, 0.965, 1.10039e-12, 4.40155e-08, 0.10789
 1476, 143, 0.965, 1.22213e-12, 4.88851e-08, 0.10789
 1488, 144, 0.965, 1.35665e-12, 5.42662e-08, 0.10789
 1500, 145, 0.965, 1.50524e-12, 6.02095e-08, 0.10789
 1512, 146, 0.965, 1.66927e-12, 6.67707e-08, 0.10789
 1524, 147, 0.965, 1.85026e-12, 7.40104e-08, 0.10789
 1536, 148, 0.965, 2.04987e-12, 8.19949e-08, 0.10789
 1548, 149, 0.965, 2.26992e-12, 9.07968e-08, 0.10789
 1560, 150, 0.965, 2.51238e-12, 1.00495e-07, 0.10789
 1572, 151, 0.965, 2.7794e-12, 1.11176e-07, 0.10789
 1584, 152, 0.965, 3.07335e-12, 1.22934e-07, 0.10789
 1596, 153, 0.965, 3.39677e-12, 1.35871e-07, 0.10789
 1608, 154, 0.965, 3.75248e-12, 1.50099e-07, 0.10789
 1620, 155, 0.965, 4.14351e-12, 1.6574e-07, 0.10789
 1632, 156, 0.965, 4.57317e-12, 1.82927e-07, 0.10789
 1644, 157, 0.965, 5.04507e-12, 2.01803e-07, 0.10789
 1656, 158, 0.965, 5.56313e-12, 2.22525e-07, 0.10789
 1668, 159, 0.965, 6.13161e-12, 2.45265e-07, 0.10789
 1680, 160, 0.965, 6.75515e-12, 2.70206e-07, 0.10789
 1692, 161, 0.965, 7.43878e-12, 2.97551e-07, 0.10789
 1704, 162, 0.965, 8.18797e-12, 3.27519e-07, 0.10789
 1716, 163, 0.965, 9.00864e-12, 3.60346e-07, 0.10789
 1728, 164, 0.965, 9.90724e-12, 3.9629e-07, 0.10789
 1740, 165, 0.965, 1.08907e-11, 4.3563e-07, 0.10789
 1752, 166, 0.965, 1.19667e-11, 4.78669e-07, 0.10789
 1764, 167, 0.965, 1.31434e-11, 5.25735e-07, 0.10789
 1776, 168, 0.965, 1.44296e-11, 5.77184e-07, 0.10789
 1788, 169, 0.965, 1.5835e-11, 6.33399e-07, 0.10789
 1800, 170, 0.965, 1.737e-11, 6.94799e-07, 0.10789
 1812, 171, 0.965, 1.90458e-11, 7.61833e-07, 0.10789
 1824, 172, 0.965, 2.08747e-11, 8.34989e-07, 0.10789
 1836, 173, 0.965, 2.28698e-11, 9.14793e-07, 0.10789
 1848, 174, 0.965, 2.50454e-11, 1.00182e-06, 0.10789
 1860, 175, 0.965, 2.74168e-11, 1.09667e-06, 0.10789
 1872, 176, 0.965, 3.00007e-11, 1.20003e-06, 0.10789
 1884, 177, 0.965, 3.28149e-11, 1.3126e-06, 0.10789
 1896, 178, 0.965, 3.58789e-11, 1.43515e-06, 0.10789
 1908, 179, 0.965, 3.92134e-11, 1.56854e-06, 0.10789
 1920, 180, 0.965, 4.28411e-11, 1.71364e-06, 0.10789
 1932, 181, 0.965, 4.67861e-11, 1.87144e-06, 0.10789
 1944, 182, 0.965, 5.10746e-11, 2.04299e-06, 0.10789
 1956, 183, 0.965, 5.57348e-11, 2.22939e-06, 0.10789
 1968, 184, 0.965, 6.0797e-11, 2.43188e-06, 0.10789
 1980, 185, 0.965, 6.62938e-11, 2.65175e-06, 0.10789
 1992, 186, 0.965, 7.22603e-11, 2.89041e-06, 0.10789
 2004, 187, 0.965, 7.87343e-11, 3.14937e-06, 0.10789
 2016, 188, 0.965, 8.57564e-11, 3.43026e-06, 0.10789
 2028, 189, 0.965, 9.33703e-11, 3.73481e-06, 0.10789
 2040, 190, 0.965, 1.01623e-10, 4.06491e-06, 0.10789
 2052, 191, 0.965, 1.10564e-10, 4.42258e-06, 0.10789
 2064, 192, 0.965, 1.20249e-10, 4.80997e-06, 0.10789
 2076, 193, 0.965, 1.30735e-10, 5.2294e-06, 0.10789
 2088, 194, 0.965, 1.42085e-10, 5.68338e-06, 0.10789
 2100, 195, 0.965, 1.54364e-10, 6.17458e-06, 0.10789
 2112, 196, 0.965, 1.67646e-10, 6.70585e-06, 0.10789
 2124, 197, 0.965, 1.82007e-10, 7.28028e-06, 0.10789
 2136, 198, 0.965, 1.97529e-10, 7.90116e-06, 0.10789
 2148, 199, 0.965, 2.143e-10, 8.57202e-06, 0.10789
 2160, 200, 0.965, 2.32416e-10, 9.29663e-06, 0.10789
 2172, 201, 0.965, 2.51976e-10, 1.0079e-05, 0.10789
 2184, 202, 0.965, 2.7309e-10, 1.09236e-05, 0.10789
 2196, 203, 0.965, 2.95873e-10, 1.18349e-05, 0.10789
 2208, 204, 0.965, 3.20449e-10, 1.2818e-05, 0.10789
 2220, 205, 0.965, 3.4695e-10, 1.3878e-05, 0.10789
 2232, 206, 0.965, 3.75519e-10, 1.50208e-05, 0.10789
 2244, 207, 0.965, 4.06306e-10, 1.62522e-05, 0.107891
 2256, 208, 0.965, 4.39473e-10, 1.75789e-05, 0.107891
 2268, 209, 0.965, 4.75193e-10, 1.90077e-05, 0.107891
 2280, 210, 0.965, 5.1365e-10, 2.0546e-05, 0.107891
 2292, 211, 0.965, 5.55041e-10, 2.22017e-05, 0.107891
 2304, 212, 0.965, 5.99576e-10, 2.3983e-05, 0.107891
 2316, 213, 0.965, 6.47479e-10, 2.58991e-05, 0.107891
 2328, 214, 0.965, 6.98988e-10, 2.79595e-05, 0.107891
 2340, 215, 0.965, 7.54358e-10, 3.01743e-05, 0.107891
 2352, 216, 0.965, 8.1386e-10, 3.25544e-05, 0.107891
 2364, 217, 0.965, 8.77784e-10, 3.51114e-05, 0.107891
 2376, 218, 0.965, 9.46437e-10, 3.78575e-05, 0.107891
 2388, 219, 0.965, 1.02015e-09, 4.08059e-05, 0.107891
 2400, 220, 0.965, 1.09926e-09, 4.39706e-05, 0.107891
 2412, 221, 0.965, 1.18416e-09, 4.73664e-05, 0.107891
 2424, 222, 0.965, 1.27523e-09, 5.10091e-05, 0.107891
 2436, 223, 0.965, 1.37289e-09, 5.49155e-05, 0.107891
 2448, 224, 0.965, 1.47759e-09, 5.91036e-05, 0.107891
 2460, 225, 0.965, 1.58981e-09, 6.35923e-05, 0.107891
 2472, 226, 0.965, 1.71005e-09, 6.84018e-05, 0.107891
 2484, 227, 0.965, 1.83884e-09, 7.35537e-05, 0.107891
 2496, 228, 0.965, 1.97677e-09, 7.90706e-05, 0.107891
 2508, 229, 0.965, 2.12442e-09, 8.49769e-05, 0.107891
 2520, 230, 0.965, 2.28245e-09, 9.12982e-05, 0.107891
 2532, 231, 0.965, 2.45154e-09, 9.80618e-05, 0.107891
 2544, 232, 0.965, 2.63242e-09, 0.000105297, 0.107891
 2556, 233, 0.965, 2.82584e-09, 0.000113034, 0.107891
 2568, 234, 0.965, 3.03262e-09, 0.000121305, 0.107891
 2580, 235, 0.965, 3.25364e-09, 0.000130145, 0.107891
 2592, 236, 0.964999, 3.48979e-09, 0.000139592, 0.107891
 2604, 237, 0.964999, 3.74206e-09, 0.000149682, 0.107891
 2616, 238, 0.964999, 4.01147e-09, 0.000160459, 0.107891
 2628, 239, 0.964999, 4.2991e-09, 0.000171964, 0.107891
 2640, 240, 0.964999, 4.60612e-09, 0.000184245, 0.107892
 2652, 241, 0.964999, 4.93374e-09, 0.000197349, 0.107892
 2664, 242, 0.964999, 5.28325e-09, 0.00021133, 0.107892
 2676, 243, 0.964999, 5.65602e-09, 0.000226241, 0.107892
 2688, 244, 0.964999, 6.0535e-09, 0.00024214, 0.107892
 2700, 245, 0.964999, 6.47721e-09, 0.000259088, 0.107892
 2712, 246, 0.964999, 6.92877e-09, 0.000277151, 0.107892
 2724, 247, 0.964999, 7.40989e-09, 0.000296396, 0.107892
 2736, 248, 0.964999, 7.92238e-09, 0.000316895, 0.107892
 2748, 249, 0.964999, 8.46815e-09, 0.000338726, 0.107892
 2760, 250, 0.964998, 9.0492e-09, 0.000361968, 0.107893
 2772, 251, 0.964998, 9.66768e-09, 0.000386707, 0.107893
 2784, 252, 0.964998, 1.03258e-08, 0.000413033, 0.107893
 2796, 253, 0.964998, 1.1026e-08, 0.000441041, 0.107893
 2808, 254, 0.964998, 1.17708e-08, 0.000470831, 0.107893
 2820, 255, 0.964998, 1.25627e-08, 0.000502508, 0.107893
 2832, 256, 0.964998, 1.34046e-08, 0.000536185, 0.107894
 2844, 257, 0.964997, 1.42995e-08, 0.000571979, 0.107894
 2856, 258, 0.964997, 1.52503e-08, 0.000610013, 0.107894
 2868, 259, 0.964997, 1.62605e-08, 0.00065042, 0.107894
 2880, 260, 0.964997, 1.73334e-08, 0.000693336, 0.107895
 2892, 261, 0.964997, 1.84727e-08, 0.000738906, 0.107895
 2904, 262, 0.964996, 1.96821e-08, 0.000787285, 0.107895
 2916, 263, 0.964996, 2.09658e-08, 0.000838633, 0.107895
 2928, 264, 0.964996, 2.2328e-08, 0.00089312, 0.107896
 2940, 265, 0.964996, 2.37731e-08, 0.000950924, 0.107896
 2952, 266, 0.964995, 2.53059e-08, 0.00101223, 0.107896
 2964, 267, 0.964995, 2.69312e-08, 0.00107725, 0.107897
 2976, 268, 0.964995, 2.86543e-08, 0.00114617, 0.107897
 2988, 269, 0.964994, 3.04807e-08, 0.00121923, 0.107898
 3000, 270, 0.964994, 3.24162e-08, 0.00129665, 0.107898
 3012, 271, 0.964994, 3.44667e-08, 0.00137867, 0.107898
 3024, 272, 0.964993, 3.66387e-08, 0.00146555, 0.107899
 3036, 273, 0.964993, 3.89389e-08, 0.00155756, 0.1079
 3048, 274, 0.964992, 4.13743e-08, 0.00165497, 0.1079
 3060, 275, 0.964992, 4.39522e-08, 0.00175809, 0.107901
 3072, 276, 0.964991, 4.66805e-08, 0.00186722, 0.107901
 3084, 277, 0.964991, 4.95673e-08, 0.00198269, 0.107902
 3096, 278, 0.96499, 5.26212e-08, 0.00210485, 0.107903
 3108, 279, 0.964989, 5.58511e-08, 0.00223404, 0.107903
 3120, 280, 0.964989, 5.92664e-08, 0.00237066, 0.107904
 3132, 281, 0.964988, 6.28772e-08, 0.00251509, 0.107905
 3144, 282, 0.964987, 6.66938e-08, 0.00266775, 0.107906
 3156, 283, 0.964986, 7.07269e-08, 0.00282908, 0.107907
 3168, 284, 0.964985, 7.49882e-08, 0.00299953, 0.107908
 3180, 285, 0.964985, 7.94896e-08, 0.00317958, 0.107909
 3192, 286, 0.964984, 8.42436e-08, 0.00336974, 0.10791
 3204, 287, 0.964983, 8.92634e-08, 0.00357054, 0.107911
 3216, 288, 0.964981, 9.45628e-08, 0.00378251, 0.107913
 3228, 289, 0.96498, 1.00156e-07, 0.00400625, 0.107914
 3240, 290, 0.964979, 1.06059e-07, 0.00424235, 0.107915
 3252, 291, 0.964978, 1.12287e-07, 0.00449146, 0.107917
 3264, 292, 0.964976, 1.18856e-07, 0.00475424, 0.107918
 3276, 293, 0.964975, 1.25784e-07, 0.00503137, 0.10792
 3288, 294, 0.964973, 1.3309e-07, 0.0053236, 0.107922
 3300, 295, 0.964972, 1.40792e-07, 0.00563168, 0.107923
 3312, 296, 0.96497, 1.4891e-07, 0.00595642, 0.107925
 3324, 297, 0.964968, 1.57466e-07, 0.00629863, 0.107927
 3336, 298, 0.964966, 1.6648e-07, 0.00665921, 0.107929
 3348, 299, 0.964964, 1.75976e-07, 0.00703905, 0.107931
 3360, 300, 0.964962, 1.85978e-07, 0.00743912, 0.107934
 3372, 301, 0.96496, 1.9651e-07, 0.00786041, 0.107936
 3384, 302, 0.964957, 2.07599e-07, 0.00830397, 0.107939
 3396, 303, 0.964955, 2.19272e-07, 0.00877089, 0.107941
 3408, 304, 0.964952, 2.31558e-07, 0.0092623, 0.107944
 3420, 305, 0.964949, 2.44485e-07, 0.0097794, 0.107947
 3432, 306, 0.964946, 2.58086e-07, 0.0103234, 0.10795
 3444, 307, 0.964943, 2.72392e-07, 0.0108957, 0.107954
 3456, 308, 0.964939, 2.87438e-07, 0.0114975, 0.107957
 3468, 309, 0.964936, 3.03259e-07, 0.0121304, 0.107961
 3480, 310, 0.964932, 3.19892e-07, 0.0127957, 0.107965
 3492, 311, 0.964928, 3.37376e-07, 0.013495, 0.107969
 3504, 312, 0.964924, 3.5575e-07, 0.01423, 0.107973
 3516, 313, 0.96492, 3.75057e-07, 0.0150023, 0.107977
 3528, 314, 0.964915, 3.95341e-07, 0.0158136, 0.107982
 3540, 315, 0.96491, 4.16646e-07, 0.0166658, 0.107987
 3552, 316, 0.964905, 4.39022e-07, 0.0175609, 0.107992
 3564, 317, 0.9649, 4.62517e-07, 0.0185007, 0.107998
 3576, 318, 0.964894, 4.87183e-07, 0.0194873, 0.108003
 3588, 319, 0.964888, 5.13074e-07, 0.020523, 0.108009
 3600, 320, 0.964882, 5.40247e-07, 0.0216099, 0.108016
 3612, 321, 0.964875, 5.6876e-07, 0.0227504, 0.108022
 3624, 322, 0.964868, 5.98674e-07, 0.023947, 0.108029
 3636, 323, 0.964861, 6.30053e-07, 0.0252021, 0.108036
 3648, 324, 0.964853, 6.62962e-07, 0.0265185, 0.108044
 3660, 325, 0.964845, 6.97472e-07, 0.0278989, 0.108052
 3672, 326, 0.964836, 7.33653e-07, 0.0293461, 0.10806
 3684, 327, 0.964827, 7.7158e-07, 0.0308632, 0.108069
 3696, 328, 0.964818, 8.11332e-07, 0.0324533, 0.108078
 3708, 329, 0.964808, 8.52989e-07, 0.0341195, 0.108087
 3720, 330, 0.964797, 8.96635e-07, 0.0358654, 0.108097
 3732, 331, 0.964786, 9.42358e-07, 0.0376943, 0.108108
 3744, 332, 0.964775, 9.90249e-07, 0.03961, 0.108119
 3756, 333, 0.964762, 1.0404e-06, 0.0416161, 0.10813
 3768, 334, 0.96475, 1.09292e-06, 0.0437167, 0.108142
 3780, 335, 0.964736, 1.1479e-06, 0.0459159, 0.108155
 3792, 336, 0.964722, 1.20545e-06, 0.0482179, 0.108168
 3804, 337, 0.964707, 1.26568e-06, 0.0506271, 0.108182
 3816, 338, 0.964692, 1.32871e-06, 0.0531482, 0.108196
 3828, 339, 0.964675, 1.39465e-06, 0.0557859, 0.108211
 3840, 340, 0.964658, 1.46363e-06, 0.0585452, 0.108227
 3852, 341, 0.96464, 1.53578e-06, 0.0614313, 0.108243
 3864, 342, 0.964621, 1.61124e-06, 0.0644495, 0.10826
 3876, 343, 0.964601, 1.69013e-06, 0.0676053, 0.108278
 3888, 344, 0.964581, 1.77262e-06, 0.0709046, 0.108297
 3900, 345, 0.964559, 1.85883e-06, 0.0743534, 0.108317
 3912, 346, 0.964536, 1.94895e-06, 0.0779578, 0.108337
 3924, 347, 0.964512, 2.04311e-06, 0.0817244, 0.108359
 3936, 348, 0.964487, 2.14149e-06, 0.0856598, 0.108381
 3948, 349, 0.964461, 2.24428e-06, 0.089771, 0.108405
 3960, 350, 0.964433, 2.35163e-06, 0.0940652, 0.108429
 3972, 351, 0.964404, 2.46375e-06, 0.0985499, 0.108454
 3984, 352, 0.964374, 2.58082e-06, 0.103233, 0.108481
 3996, 353, 0.964342, 2.70305e-06, 0.108122, 0.108509
 4008, 354, 0.964309, 2.83065e-06, 0.113226, 0.108538
 4020, 355, 0.964274, 2.96383e-06, 0.118553, 0.108568
 4032, 356, 0.964238, 3.10281e-06, 0.124113, 0.108599
 4044, 357, 0.9642, 3.24784e-06, 0.129913, 0.108632
 4056, 358, 0.96416, 3.39914e-06, 0.135965, 0.108666
 4068, 359, 0.964118, 3.55696e-06, 0.142279, 0.108702
 4080, 360, 0.964075, 3.72158e-06, 0.148863, 0.108739
 4092, 361, 0.964029, 3.89324e-06, 0.15573, 0.108778
 4104, 362, 0.963981, 4.07224e-06, 0.162889, 0.108819
 4116, 363, 0.963931, 4.25885e-06, 0.170354, 0.108861
 4128, 364, 0.963879, 4.45337e-06, 0.178135, 0.108905
 4140, 365, 0.963824, 4.65611e-06, 0.186244, 0.10895
 4152, 366, 0.963767, 4.86738e-06, 0.194695, 0.108998
 4164, 367, 0.963707, 5.08752e-06, 0.203501, 0.109048
 4176, 368, 0.963645, 5.31687e-06, 0.212675, 0.109099
 4188, 369, 0.96358, 5.55577e-06, 0.222231, 0.109153
 4200, 370, 0.963512, 5.80458e-06, 0.232183, 0.109209
 4212, 371, 0.96344, 6.06369e-06, 0.242548, 0.109268
 4224, 372, 0.963366, 6.33349e-06, 0.25334, 0.109328
 4236, 373, 0.963288, 6.61437e-06, 0.264575, 0.109392
 4248, 374, 0.963207, 6.90675e-06, 0.27627, 0.109457
 4260, 375, 0.963122, 7.21105e-06, 0.288442, 0.109526
 4272, 376, 0.963034, 7.52773e-06, 0.301109, 0.109597
 4284, 377, 0.962942, 7.85723e-06, 0.314289, 0.109671
 4296, 378, 0.962845, 8.20004e-06, 0.328002, 0.109748
 4308, 379, 0.962745, 8.55663e-06, 0.342265, 0.109827
 4320, 380, 0.96264, 8.92752e-06, 0.357101, 0.109911
 4332, 381, 0.962531, 9.31322e-06, 0.372529, 0.109997
 4344, 382, 0.962416, 9.71426e-06, 0.388571, 0.110087
 4356, 383, 0.962297, 1.01312e-05, 0.405249, 0.11018
 4368, 384, 0.962173, 1.05646e-05, 0.422585, 0.110277
 4380, 385, 0.962044, 1.10151e-05, 0.440605, 0.110378
 4392, 386, 0.961909, 1.14833e-05, 0.459331, 0.110483
 4404, 387, 0.961768, 1.19697e-05, 0.478789, 0.110591
 4416, 388, 0.961621, 1.24751e-05, 0.499005, 0.110704
 4428, 389, 0.961469, 1.30001e-05, 0.520006, 0.110821
 4440, 390, 0.961309, 1.35454e-05, 0.541818, 0.110943
 4452, 391, 0.961143, 1.41118e-05, 0.56447, 0.111069
 4464, 392, 0.960971, 1.46998e-05, 0.587992, 0.1112
 4476, 393, 0.96079, 1.53103e-05, 0.612413, 0.111336
 4488, 394, 0.960603, 1.59441e-05, 0.637764, 0.111477
 4500, 395, 0.960408, 1.66019e-05, 0.664077, 0.111624
 4512, 396, 0.960204, 1.72846e-05, 0.691384, 0.111776
 4524, 397, 0.959993, 1.7993e-05, 0.71972, 0.111933
 4536, 398, 0.959772, 1.8728e-05, 0.749119, 0.112096
 4548, 399, 0.959543, 1.94904e-05, 0.779617, 0.112266
 4560, 400, 0.959305, 2.02813e-05, 0.811251, 0.112441
 4572, 401, 0.959056, 2.11014e-05, 0.844057, 0.112623
 4584, 402, 0.958798, 2.19519e-05, 0.878075, 0.112812
 4596, 403, 0.958529, 2.28336e-05, 0.913345, 0.113007
 4608, 404, 0.95825, 2.37477e-05, 0.949908, 0.11321
 4620, 405, 0.957959, 2.46951e-05, 0.987805, 0.11342
 4632, 406, 0.957657, 2.5677e-05, 1.02708, 0.113637
 4644, 407, 0.957343, 2.66944e-05, 1.06778, 0.113862
 4656, 408, 0.957016, 2.77485e-05, 1.10994, 0.114095
 4668, 409, 0.956677, 2.88405e-05, 1.15362, 0.114336
 4680, 410, 0.956324, 2.99715e-05, 1.19886, 0.114586
 4692, 411, 0.955957, 3.11428e-05, 1.24571, 0.114844
 4704, 412, 0.955576, 3.23556e-05, 1.29423, 0.115112
 4716, 413, 0.955181, 3.36113e-05, 1.34445, 0.115389
 4728, 414, 0.954769, 3.49111e-05, 1.39644, 0.115675
 4740, 415, 0.954342, 3.62563e-05, 1.45025, 0.115971
 4752, 416, 0.953899, 3.76485e-05, 1.50594, 0.116278
 4764, 417, 0.953439, 3.9089e-05, 1.56356, 0.116594
 4776, 418, 0.952961, 4.05791e-05, 1.62317, 0.116922
 4788, 419, 0.952465, 4.21205e-05, 1.68482, 0.11726
 4800, 420, 0.95195, 4.37147e-05, 1.74859, 0.11761
 4812, 421, 0.951415, 4.53631e-05, 1.81452, 0.117972
 4824, 422, 0.950861, 4.70674e-05, 1.8827, 0.118346
 4836, 423, 0.950285, 4.88292e-05, 1.95317, 0.118732
 4848, 424, 0.949688, 5.06501e-05, 2.026, 0.11913
 4860, 425, 0.949069, 5.25318e-05, 2.10127, 0.119542
 4872, 426, 0.948427, 5.4476e-05, 2.17904, 0.119967
 4884, 427, 0.947762, 5.64844e-05, 2.25938, 0.120406
 4896, 428, 0.947072, 5.85589e-05, 2.34236, 0.12086
 4908, 429, 0.946356, 6.07012e-05, 2.42805, 0.121327
 4920, 430, 0.945614, 6.29133e-05, 2.51653, 0.12181
 4932, 431, 0.944846, 6.51968e-05, 2.60787, 0.122307
 4944, 432, 0.944049, 6.75539e-05, 2.70216, 0.122821
 4956, 433, 0.943224, 6.99863e-05, 2.79945, 0.12335
 4968, 434, 0.942369, 7.24961e-05, 2.89984, 0.123896
 4980, 435, 0.941484, 7.50852e-05, 3.00341, 0.124459
 4992, 436, 0.940567, 7.77556e-05, 3.11022, 0.125039
 5004, 437, 0.939617, 8.05094e-05, 3.22038, 0.125636
 5016, 438, 0.938634, 8.33487e-05, 3.33395, 0.126252
 5028, 439, 0.937617, 8.62755e-05, 3.45102, 0.126886
 5040, 440, 0.936563, 8.9292e-05, 3.57168, 0.127539
 5052, 441, 0.935473, 9.24002e-05, 3.69601, 0.128212
 5064, 442, 0.934345, 9.56024e-05, 3.8241, 0.128904
 5076, 443, 0.933178, 9.89006e-05, 3.95602, 0.129616
 5088, 444, 0.931971, 0.000102297, 4.09188, 0.130349
 5100, 445, 0.930723, 0.000105794, 4.23176, 0.131103
 5112, 446, 0.929432, 0.000109393, 4.37574, 0.131878
 5124, 447, 0.928097, 0.000113098, 4.52391, 0.132676
 5136, 448, 0.926717, 0.000116909, 4.67636, 0.133495
 5148, 449, 0.925291, 0.00012083, 4.83319, 0.134337
 5160, 450, 0.923817, 0.000124862, 4.99446, 0.135203
 5172, 451, 0.922293, 0.000129007, 5.16028, 0.136091
 5184, 452, 0.92072, 0.000133268, 5.33073, 0.137004
 5196, 453, 0.919095, 0.000137647, 5.50589, 0.137941
 5208, 454, 0.917416, 0.000142146, 5.68586, 0.138903
 5220, 455, 0.915682, 0.000146768, 5.8707, 0.139889
 5232, 456, 0.913893, 0.000151513, 6.06052, 0.140902
 5244, 457, 0.912046, 0.000156384, 6.25538, 0.141939
 5256, 458, 0.910139, 0.000161384, 6.45537, 0.143003
 5268, 459, 0.908172, 0.000166514, 6.66056, 0.144094
 5280, 460, 0.906142, 0.000171776, 6.87104, 0.145211
 5292, 461, 0.904049, 0.000177172, 7.08686, 0.146355
 5304, 462, 0.90189, 0.000182703, 7.30811, 0.147526
 5316, 463, 0.899663, 0.000188371, 7.53484, 0.148725
 5328, 464, 0.897368, 0.000194178, 7.76712, 0.149951
 5340, 465, 0.895002, 0.000200125, 8.00502, 0.151205
 5352, 466, 0.892564, 0.000206214, 8.24857, 0.152488
 5364, 467, 0.890053, 0.000212446, 8.49784, 0.153798
 5376, 468, 0.887465, 0.000218822, 8.75287, 0.155137
 5388, 469, 0.8848, 0.000225342, 9.0137, 0.156504
 5400, 470, 0.882056, 0.000232009, 9.28036, 0.157899
 5412, 471, 0.879231, 0.000238822, 9.55289, 0.159323
 5424, 472, 0.876324, 0.000245782, 9.83129, 0.160775
 5436, 473, 0.873332, 0.00025289, 10.1156, 0.162255
 5448, 474, 0.870254, 0.000260145, 10.4058, 0.163763
 5460, 475, 0.867088, 0.000267547, 10.7019, 0.165298
 5472, 476, 0.863832, 0.000275097, 11.0039, 0.166861
 5484, 477, 0.860485, 0.000282793, 11.3117, 0.168452
 5496, 478, 0.857044, 0.000290636, 11.6254, 0.170068
 5508, 479, 0.853509, 0.000298623, 11.9449, 0.171712
 5520, 480, 0.849877, 0.000306754, 12.2702, 0.173381
 5532, 481, 0.846146, 0.000315027, 12.6011, 0.175075
 5544, 482, 0.842315, 0.00032344, 12.9376, 0.176793
 5556, 483, 0.838383, 0.000331992, 13.2797, 0.178535
 5568, 484, 0.834347, 0.000340678, 13.6271, 0.1803
 5580, 485, 0.830206, 0.000349498, 13.9799, 0.182087
 5592, 486, 0.825958, 0.000358446, 14.3379, 0.183895
 5604, 487, 0.821603, 0.000367521, 14.7008, 0.185723
 5616, 488, 0.817137, 0.000376716, 15.0687, 0.187569
 5628, 489, 0.812561, 0.000386029, 15.4412, 0.189433
 5640, 490, 0.807872, 0.000395455, 15.8182, 0.191312
 5652, 491, 0.803069, 0.000404987, 16.1995, 0.193206
 5664, 492, 0.798152, 0.00041462, 16.5848, 0.195112
 5676, 493, 0.793118, 0.000424347, 16.9739, 0.197029
 5688, 494, 0.787967, 0.000434163, 17.3665, 0.198956
 5700, 495, 0.782698, 0.000444059, 17.7624, 0.200889
 5712, 496, 0.777309, 0.000454028, 18.1611, 0.202827
 5724, 497, 0.771801, 0.000464061, 18.5624, 0.204768
 5736, 498, 0.766171, 0.00047415, 18.966, 0.206709
 5748, 499, 0.760421, 0.000484284, 19.3714, 0.208648
 5760, 500, 0.754548, 0.000494454, 19.7782, 0.210583
 5772, 501, 0.748554, 0.000504649, 20.186, 0.212509
 5784, 502, 0.742437, 0.000514858, 20.5943, 0.214425
 5796, 503, 0.736197, 0.000525069, 21.0028, 0.216327
 5808, 504, 0.729835, 0.000535269, 21.4108, 0.218213
 5820, 505, 0.723351, 0.000545445, 21.8178, 0.220078
 5832, 506, 0.716744, 0.000555584, 22.2234, 0.221919
 5844, 507, 0.710017, 0.000565671, 22.6268, 0.223733
 5856, 508, 0.703168, 0.000575691, 23.0276, 0.225517
 5868, 509, 0.6962, 0.000585628, 23.4251, 0.227265
 5880, 510, 0.689114, 0.000595468, 23.8187, 0.228974
 5892, 511, 0.681909, 0.000605192, 24.2077, 0.23064
 5904, 512, 0.674589, 0.000614783, 24.5913, 0.232259
 5916, 513, 0.667155, 0.000624224, 24.969, 0.233825
 5928, 514, 0.659609, 0.000633496, 25.3398, 0.235336
 5940, 515, 0.651952, 0.00064258, 25.7032, 0.236786
 5952, 516, 0.644187, 0.000651458, 26.0583, 0.23817
 5964, 517, 0.636318, 0.000660108, 26.4043, 0.239484
 5976, 518, 0.628346, 0.000668511, 26.7404, 0.240722
 5988, 519, 0.620274, 0.000676646, 27.0659, 0.24188
 6000, 520, 0.612107, 0.000684493, 27.3797, 0.242953
 6012, 521, 0.603848, 0.00069203, 27.6812, 0.243936
 6024, 522, 0.5955, 0.000699235, 27.9694, 0.244824
 6036, 523, 0.587068, 0.000706088, 28.2435, 0.245611
 6048, 524, 0.578555, 0.000712566, 28.5026, 0.246293
 6060, 525, 0.569967, 0.000718647, 28.7459, 0.246864
 6072, 526, 0.561309, 0.000724311, 28.9724, 0.24732
 6084, 527, 0.552586, 0.000729535, 29.1814, 0.247656
 6096, 528, 0.543802, 0.000734299, 29.3719, 0.247867
 6108, 529, 0.534964, 0.00073858, 29.5432, 0.247947
 6120, 530, 0.526078, 0.000742359, 29.6944, 0.247893
 6132, 531, 0.51715, 0.000745616, 29.8246, 0.2477
 6144, 532, 0.508186, 0.00074833, 29.9332, 0.247364
 6156, 533, 0.499192, 0.000750484, 30.0194, 0.24688
 6168, 534, 0.490176, 0.000752058, 30.0823, 0.246245
 6180, 535, 0.481145, 0.000753036, 30.1214, 0.245455
 6192, 536, 0.472106, 0.000753401, 30.1361, 0.244507
 6204, 537, 0.463066, 0.000753139, 30.1256, 0.243398
 6216, 538, 0.454033, 0.000752236, 30.0894, 0.242125
 6228, 539, 0.445015, 0.000750678, 30.0271, 0.240685
 6240, 540, 0.43602, 0.000748456, 29.9382, 0.239078
 6252, 541, 0.427055, 0.000745559, 29.8224, 0.237301
 6264, 542, 0.418129, 0.000741981, 29.6792, 0.235353
 6276, 543, 0.40925, 0.000737714, 29.5085, 0.233235
 6288, 544, 0.400427, 0.000732755, 29.3102, 0.230944
 6300, 545, 0.391667, 0.000727101, 29.0841, 0.228483
 6312, 546, 0.382979, 0.000720754, 28.8302, 0.225852
 6324, 547, 0.374371, 0.000713714, 28.5486, 0.223053
 6336, 548, 0.365853, 0.000705987, 28.2395, 0.220087
 6348, 549, 0.357431, 0.000697578, 27.9031, 0.216957
 6360, 550, 0.349114, 0.000688498, 27.5399, 0.213667
 6372, 551, 0.340909, 0.000678757, 27.1503, 0.210221
 6384, 552, 0.332826, 0.000668369, 26.7348, 0.206622
 6396, 553, 0.324871, 0.000657351, 26.294, 0.202876
 6408, 554, 0.317052, 0.000645721, 25.8288, 0.198989
 6420, 555, 0.309376, 0.000633501, 25.3401, 0.194966
 6432, 556, 0.301851, 0.000620715, 24.8286, 0.190816
 6444, 557, 0.294481, 0.000607388, 24.2955, 0.186545
 6456, 558, 0.287275, 0.000593549, 23.742, 0.182161
 6468, 559, 0.280238, 0.000579229, 23.1691, 0.177672
 6480, 560, 0.273376, 0.000564459, 22.5784, 0.173089
 6492, 561, 0.266693, 0.000549276, 21.9711, 0.16842
 6504, 562, 0.260195, 0.000533716, 21.3487, 0.163676
 6516, 563, 0.253885, 0.000517817, 20.7127, 0.158866
 6528, 564, 0.247769, 0.00050162, 20.0648, 0.154001
 6540, 565, 0.241848, 0.000485165, 19.4066, 0.149093
 6552, 566, 0.236126, 0.000468496, 18.7398, 0.144153
 6564, 567, 0.230605, 0.000451655, 18.0662, 0.139192
 6576, 568, 0.225287, 0.000434688, 17.3875, 0.134222
 6588, 569, 0.220173, 0.000417639, 16.7056, 0.129254
 6600, 570, 0.215264, 0.000400554, 16.0222, 0.124301
 6612, 571, 0.21056, 0.000383477, 15.3391, 0.119373
 6624, 572, 0.20606, 0.000366453, 14.6581, 0.114482
 6636, 573, 0.201764, 0.000349528, 13.9811, 0.10964
 6648, 574, 0.197671, 0.000332743, 13.3097, 0.104858
 6660, 575, 0.193778, 0.000316143, 12.6457, 0.100145
 6672, 576, 0.190083, 0.000299768, 11.9907, 0.0955139
 6684, 577, 0.186583, 0.000283658, 11.3463, 0.0909726
 6696, 578, 0.183274, 0.00026785, 10.714, 0.0865313
 6708, 579, 0.180153, 0.000252381, 10.0952, 0.0821985
 6720, 580, 0.177216, 0.000237284, 9.49137, 0.0779823
 6732, 581, 0.174457, 0.000222591, 8.90362, 0.0738903
 6744, 582, 0.171872, 0.000208329, 8.33315, 0.0699291
 6756, 583, 0.169455, 0.000194524, 7.78097, 0.0661048
 6768, 584, 0.167201, 0.0001812, 7.24801, 0.0624227
 6780, 585, 0.165105, 0.000168376, 6.73505, 0.0588871
 6792, 586, 0.163159, 0.000156069, 6.24275, 0.0555015
 6804, 587, 0.161357, 0.000144292, 5.77168, 0.0522687
 6816, 588, 0.159693, 0.000133056, 5.32223, 0.0491908
 6828, 589, 0.158162, 0.000122367, 4.8947, 0.0462688
 6840, 590, 0.156755, 0.000112231, 4.48925, 0.0435029
 6852, 591, 0.155466, 0.000102648, 4.10593, 0.0408928
 6864, 592, 0.154289, 9.36167e-05, 3.74467, 0.0384373
 6876, 593, 0.153217, 8.51318e-05, 3.40527, 0.0361341
 6888, 594, 0.152244, 7.71863e-05, 3.08745, 0.0339809
 6900, 595, 0.151362, 6.97701e-05, 2.79081, 0.0319743
 6912, 596, 0.150567, 6.28713e-05, 2.51485, 0.0301107
 6924, 597, 0.149852, 5.64755e-05, 2.25902, 0.0283851
 6936, 598, 0.14921, 5.05664e-05, 2.02265, 0.0267932
 6948, 599, 0.148636, 4.51261e-05, 1.80505, 0.0253296
 6960, 600, 0.148125, 4.01355e-05, 1.60542, 0.0239887
 6972, 601, 0.147671, 3.55739e-05, 1.42296, 0.0227649
 6984, 602, 0.14727, 3.142e-05, 1.2568, 0.0216513
 6996, 603, 0.146916, 2.76515e-05, 1.10606, 0.0206425
 7008, 604, 0.146605, 2.42457e-05, 0.96983, 0.0197319
 7020, 605, 0.146332, 2.11799e-05, 0.847196, 0.018913
 7032, 606, 0.146095, 1.8431e-05, 0.737241, 0.0181795
 7044, 607, 0.145889, 1.59763e-05, 0.639054, 0.0175251
 7056, 608, 0.145711, 1.37934e-05, 0.551735, 0.0169438
 7068, 609, 0.145557, 1.18603e-05, 0.47441, 0.0164297
 7080, 610, 0.145425, 1.01557e-05, 0.406228, 0.0159765
 7092, 611, 0.145312, 8.65926e-06, 0.346371, 0.0155792
 7104, 612, 0.145217, 7.35137e-06, 0.294055, 0.0152323
 7116, 613, 0.145135, 6.21344e-06, 0.248538, 0.0149305
 7128, 614, 0.145067, 5.22797e-06, 0.209119, 0.0146695
 7140, 615, 0.145009, 4.37856e-06, 0.175142, 0.0144446
 7152, 616, 0.144961, 3.64992e-06, 0.145997, 0.0142521
 7164, 617, 0.144921, 3.02795e-06, 0.121118, 0.0140874
 7176, 618, 0.144888, 2.49967e-06, 0.099987, 0.0139481
 7188, 619, 0.144861, 2.05326e-06, 0.0821304, 0.0138303
 7200, 620, 0.144839, 1.67798e-06, 0.067119, 0.0137313
 7212, 621, 0.14482, 1.36415e-06, 0.0545661, 0.0136487
 7224, 622, 0.144806, 1.10314e-06, 0.0441255, 0.0135798
 7236, 623, 0.144794, 8.87235e-07, 0.0354894, 0.0135231
 7248, 624, 0.144784, 7.09646e-07, 0.0283859, 0.0134763
 7260, 625, 0.144777, 5.64405e-07, 0.0225762, 0.0134381
 7272, 626, 0.144771, 4.46308e-07, 0.0178523, 0.0134069
 7284, 627, 0.144766, 3.50852e-07, 0.0140341, 0.013382
 7296, 628, 0.144762, 2.74162e-07, 0.0109665, 0.0133619
 7308, 629, 0.144759, 2.12927e-07, 0.00851709, 0.0133457
 7320, 630, 0.144757, 1.6434e-07, 0.00657358, 0.013333
 7332, 631, 0.144755, 1.26034e-07, 0.00504135, 0.0133231
 7344, 632, 0.144754, 9.60303e-08, 0.00384121, 0.0133153
 7356, 633, 0.144753, 7.26862e-08, 0.00290745, 0.013309
 7368, 634, 0.144752, 5.46461e-08, 0.00218584, 0.0133043
 7380, 635, 0.144752, 4.08011e-08, 0.00163205, 0.0133007
 7392, 636, 0.144751, 3.02504e-08, 0.00121002, 0.0132979
 7404, 637, 0.144751, 2.22677e-08, 0.00089071, 0.0132959
 7416, 638, 0.144751, 1.62722e-08, 0.000650887, 0.0132943
 7428, 639, 0.14475, 1.18026e-08, 0.000472102, 0.013293
 7440, 640, 0.14475, 8.49581e-09, 0.000339833, 0.0132923
 7452, 641, 0.14475, 6.0683e-09, 0.000242732, 0.0132917
 7464, 642, 0.14475, 4.30027e-09, 0.000172011, 0.0132913
 7476, 643, 0.14475, 3.02291e-09, 0.000120916, 0.0132908
 7488, 644, 0.14475, 2.10759e-09, 8.43035e-05, 0.0132907
 7500, 645, 0.14475, 1.45717e-09, 5.82867e-05, 0.0132904
 7512, 646, 0.14475, 9.98905e-10, 3.99562e-05, 0.0132904
 7524, 647, 0.14475, 6.78827e-10, 2.71531e-05, 0.0132902
 7536, 648, 0.14475, 4.57237e-10, 1.82895e-05, 0.0132902
 7548, 649, 0.14475, 3.05208e-10, 1.22083e-05, 0.0132901
 7560, 650, 0.14475, 2.01858e-10, 8.07434e-06, 0.0132901
 7572, 651, 0.14475, 1.32257e-10, 5.29028e-06, 0.0132901
 7584, 652, 0.14475, 8.58285e-11, 3.43314e-06, 0.0132903
 7596, 653, 0.14475, 5.51578e-11, 2.20631e-06, 0.01329
 7608, 654, 0.14475, 3.50965e-11, 1.40386e-06, 0.01329
 7620, 655, 0.14475, 2.21065e-11, 8.84261e-07, 0.01329
 7632, 656, 0.14475, 1.37814e-11, 5.51255e-07, 0.0132901
 7644, 657, 0.14475, 8.50149e-12, 3.4006e-07, 0.01329
 7656, 658, 0.14475, 5.1885e-12, 2.0754e-07, 0.0132899
 7668, 659, 0.14475, 3.13217e-12, 1.25287e-07, 0.0132901
 7680, 660, 0.14475, 1.86989e-12, 7.47954e-08, 0.0132899
 7692, 661, 0.14475, 1.10373e-12, 4.4149e-08, 0.01329
 7704, 662, 0.14475, 6.44008e-13, 2.57603e-08, 0.0132899
 7716, 663, 0.14475, 3.71374e-13, 1.48549e-08, 0.01329
 7728, 664, 0.14475, 2.11605e-13, 8.46419e-09, 0.0132901
 7740, 665, 0.14475, 1.19107e-13, 4.76428e-09, 0.0132901
 7752, 666, 0.14475, 6.62138e-14, 2.64855e-09, 0.0132902
 7764, 667, 0.14475, 3.63462e-14, 1.45385e-09, 0.01329
 7776, 668, 0.14475, 1.96954e-14, 7.87817e-10, 0.01329
 7788, 669, 0.14475, 1.05333e-14, 4.21333e-10, 0.01329
 7800, 670, 0.14475, 5.55846e-15, 2.22338e-10, 0.01329
 7812, 671, 0.14475, 2.89351e-15, 1.1574e-10, 0.0132901
 7824, 672, 0.14475, 1.48548e-15, 5.94193e-11, 0.0132901
 7836, 673, 0.14475, 7.51922e-16, 3.00769e-11, 0.0132901
 7848, 674, 0.14475, 3.7517e-16, 1.50068e-11, 0.01329
 7860, 675, 0.14475, 1.84468e-16, 7.37871e-12, 0.01329
 7872, 676, 0.14475, 8.9358e-17, 3.57432e-12, 0.0132901
 7884, 677, 0.14475, 4.26334e-17, 1.70533e-12, 0.0132901
 7896, 678, 0.14475, 2.00285e-17, 8.01141e-13, 0.0132901
 7908, 679, 0.14475, 9.26213e-18, 3.70485e-13, 0.0132901
 7920, 680, 0.14475, 4.21513e-18, 1.68605e-13, 0.01329
 7932, 681, 0.14475, 1.88723e-18, 7.54894e-14, 0.0132901
 7944, 682, 0.14475, 8.31049e-19, 3.32419e-14, 0.0132901
 7956, 683, 0.14475, 3.59819e-19, 1.43928e-14, 0.0132901
 7968, 684, 0.14475, 1.53133e-19, 6.12531e-15, 0.01329
 7980, 685, 0.14475, 6.40389e-20, 2.56156e-15, 0.0132901
 7992, 686, 0.14475, 2.63074e-20, 1.05229e-15, 0.0132901
 8004, 687, 0.14475, 1.06128e-20, 4.24512e-16, 0.0132901
 8016, 688, 0.14475, 4.20304e-21, 1.68121e-16, 0.0132901
 8028, 689, 0.14475, 1.63356e-21, 6.53422e-17, 0.0132901
 8040, 690, 0.14475, 6.22872e-22, 2.49149e-17, 0.0132901
 8052, 691, 0.14475, 2.32922e-22, 9.31689e-18, 0.0132901
 8064, 692, 0.14475, 8.53931e-23, 3.41572e-18, 0.01329
 8076, 693, 0.14475, 3.06819e-23, 1.22728e-18, 0.0132901
 8088, 694, 0.14475, 1.08004e-23, 4.32014e-19, 0.0132901
 8100, 695, 0.14475, 3.72334e-24, 1.48934e-19, 0.01329
 8112, 696, 0.14475, 1.25664e-24, 5.02655e-20, 0.0132901
 8124, 697, 0.14475, 4.15058e-25, 1.66023e-20, 0.0132901
 8136, 698, 0.14475, 1.34111e-25, 5.36446e-21, 0.0132901
 8148, 699, 0.14475, 4.23757e-26, 1.69503e-21, 0.01329
 8160, 700, 0.14475, 1.30886e-26, 5.23545e-22, 0.0132901
 8172, 701, 0.14475, 3.95028e-27, 1.58011e-22, 0.01329
 8184, 702, 0.14475, 1.16451e-27, 4.65805e-23, 0.0132901
 8196, 703, 0.14475, 3.35172e-28, 1.34069e-23, 0.0132901
 8208, 704, 0.14475, 9.41504e-29, 3.76602e-24, 0.01329
 8220, 705, 0.14475, 2.58003e-29, 1.03201e-24, 0.0132901
 8232, 706, 0.14475, 6.89436e-30, 2.75774e-25, 0.01329
 8244, 707, 0.14475, 1.79574e-30, 7.18295e-26, 0.01329
 8256, 708, 0.14475, 4.55703e-31, 1.82281e-26, 0.0132901
 8268, 709, 0.14475, 1.12621e-31, 4.50485e-27, 0.01329
 8280, 710, 0.14475, 2.70934e-32, 1.08374e-27, 0.01329
 8292, 711, 0.14475, 6.34184e-33, 2.53673e-28, 0.0132901
 8304, 712, 0.14475, 1.44369e-33, 5.77475e-29, 0.0132901
 8316, 713, 0.14475, 3.19473e-34, 1.27789e-29, 0.01329
 8328, 714, 0.14475, 6.86901e-35, 2.74761e-30, 0.0132901
 8340, 715, 0.14475, 1.43431e-35, 5.73723e-31, 0.0132901
 8352, 716, 0.14475, 2.90715e-36, 1.16286e-31, 0.0132901
 8364, 717, 0.14475, 5.71679e-37, 2.28672e-32, 0.0132901
 8376, 718, 0.14475, 1.09014e-37, 4.36054e-33, 0.0132901
 8388, 719, 0.14475, 2.01479e-38, 8.05915e-34, 0.01329
 8400, 720, 0.14475, 0.0000000E+000, 1.44289e-34, 0.01329
 8412, 721, 0.14475, 0.0000000E+000, 2.50119e-35, 0.01329
 8424, 722, 0.14475, 0.0000000E+000, 4.19563e-36, 0.0132901
 8436, 723, 0.14475, 0.0000000E+000, 6.80688e-37, 0.0132901
 8448, 724, 0.14475, 0.0000000E+000, 1.06749e-37, 0.01329
 8460, 725, 0.14475, 0.0000000E+000, 1.61734e-38, 0.0132901
 8472, 726, 0.14475, 0.0000000E+000, 0.0000000E+000, 0.01329
 8484, 727, 0.14475, 0.0000000E+000, 0.0000000E+000, 0.0132901
 8496, 728, 0.14475, 0.0000000E+000, 0.0000000E+000, 0.01329
 8508, 729, 0.14475, 0.0000000E+000, 0.0000000E+000, 0.01329
 8520, 730, 0.14475, 0.0000000E+000, 0.0000000E+000, 0.01329
 8532, 731, 0.14475, 0.0000000E+000, 0.0000000E+000, 0.01329
 8544, 732, 0.14475, 0.0000000E+000, 0.0000000E+000, 0.01329
 8556, 733, 0.14475, 0.0000000E+000, 0.0000000E+000, 0.0132901
 8568, 734, 0.14475, 0.0000000E+000, 0.0000000E+000, 0.0132901
 8580, 735, 0.14475, 0.0000000E+000, 0.0000000E+000, 0.0132901
 8592, 736, 0.14475, 0.0000000E+000, 0.0000000E+000, 0.01329
 8604, 737, 0.14475, 0.0000000E+000, 0.0000000E+000, 0.01329
 8616, 738, 0.14475, 0.0000000E+000, 0.0000000E+000, 0.01329
 8628, 739, 0.14475, 0.0000000E+000, 0.0000000E+000, 0.0132901
 8640, 740, 0.14475, 0.0000000E+000, 0.0000000E+000, 0.0132901
 8652, 741, 0.14475, 0.0000000E+000, 0.0000000E+000, 0.0132901
 8664, 742, 0.14475, 0.0000000E+000, 0.0000000E+000, 0.0132901
 8676, 743, 0.14475, 0.0000000E+000, 0.0000000E+000, 0.0132901
 8688, 744, 0.14475, 0.0000000E+000, 0.0000000E+000, 0.0132901
 8700, 745, 0.14475, 0.0000000E+000, 0.0000000E+000, 0.01329
 8712, 746, 0.14475, 0.0000000E+000, 0.0000000E+000, 0.01329
 8724, 747, 0.14475, 0.0000000E+000, 0.0000000E+000, 0.0132901
 8736, 748, 0.14475, 0.0000000E+000, 0.0000000E+000, 0.01329
 8748, 749, 0.14475, 0.0000000E+000, 0.0000000E+000, 0.0132901
 8760, 750, 0.14475, 0.0000000E+000, 0.0000000E+000, 0.01329
 8772, 751, 0.14475, 0.0000000E+000, 0.0000000E+000, 0.01329
 8784, 752, 0.14475, 0.0000000E+000, 0.0000000E+000, 0.0132901
 8796, 753, 0.14475, 0.0000000E+000, 0.0000000E+000, 0.0132899
 8808, 754, 0.14475, 0.0000000E+000, 0.0000000E+000, 0.01329
 8820, 755, 0.14475, 0.0000000E+000, 0.0000000E+000, 0.0132899
 8832, 756, 0.14475, 0.0000000E+000, 0.0000000E+000, 0.0132901
 8844, 757, 0.14475, 0.0000000E+000, 0.0000000E+000, 0.0132903
 8856, 758, 0.14475, 0.0000000E+000, 0.0000000E+000, 0.01329
 8868, 759, 0.14475, 0.0000000E+000, 0.0000000E+000, 0.01329
 8880, 760, 0.14475, 0.0000000E+000, 0.0000000E+000, 0.01329
 8892, 761, 0.14475, 0.0000000E+000, 0.0000000E+000, 0.01329
 8904, 762, 0.14475, 0.0000000E+000, 0.0000000E+000, 0.01329
 8916, 763, 0.14475, 0.0000000E+000, 0.0000000E+000, 0.0132899
 8928, 764, 0.14475, 0.0000000E+000, 0.0000000E+000, 0.01329
 8940, 765, 0.14475, 0.0000000E+000, 0.0000000E+000, 0.0132902
 8952, 766, 0.14475, 0.0000000E+000, 0.0000000E+000, 0.01329
 8964, 767, 0.14475, 0.0000000E+000, 0.0000000E+000, 0.0132901
 8976, 768, 0.14475, 0.0000000E+000, 0.0000000E+000, 0.0132901
 8988, 769, 0.14475, 0.0000000E+000, 0.0000000E+000, 0.0132901
 9000, 770, 0.14475, 0.0000000E+000, 0.0000000E+000, 0.0132899
 9012, 771, 0.14475, 0.0000000E+000, 0.0000000E+000, 0.01329
 9024, 772, 0.14475, 0.0000000E+000, 0.0000000E+000, 0.01329
 9036, 773, 0.14475, 0.0000000E+000, 0.0000000E+000, 0.0132901
 9048, 774, 0.14475, 0.0000000E+000, 0.0000000E+000, 0.01329
 9060, 775, 0.14475, 0.0000000E+000, 0.0000000E+000, 0.0132901
 9072, 776, 0.14475, 0.0000000E+000, 0.0000000E+000, 0.0132899
 9084, 777, 0.14475, 0.0000000E+000, 0.0000000E+000, 0.01329
 9096, 778, 0.14475, 0.0000000E+000, 0.0000000E+000, 0.0132902
 9108, 779, 0.14475, 0.0000000E+000, 0.0000000E+000, 0.01329
 9120, 780, 0.14475, 0.0000000E+000, 0.0000000E+000, 0.0132901
 9132, 781, 0.14475, 0.0000000E+000, 0.0000000E+000, 0.0132901
 9144, 782, 0.14475, 0.0000000E+000, 0.0000000E+000, 0.0132902
 9156, 783, 0.14475, 0.0000000E+000, 0.0000000E+000, 0.01329
 9168, 784, 0.14475, 0.0000000E+000, 0.0000000E+000, 0.0132901
 9180, 785, 0.14475, 0.0000000E+000, 0.0000000E+000, 0.0132901
 9192, 786, 0.14475, 0.0000000E+000, 0.0000000E+000, 0.0132899
 9204, 787, 0.14475, 0.0000000E+000, 0.0000000E+000, 0.01329
 9216, 788, 0.14475, 0.0000000E+000, 0.0000000E+000, 0.0132901
 9228, 789, 0.14475, 0.0000000E+000, 0.0000000E+000, 0.0132901
 9240, 790, 0.14475, 0.0000000E+000, 0.0000000E+000, 0.01329
 9252, 791, 0.14475, 0.0000000E+000, 0.0000000E+000, 0.0132901
 9264, 792, 0.14475, 0.0000000E+000, 0.0000000E+000, 0.01329
 9276, 793, 0.14475, 0.0000000E+000, 0.0000000E+000, 0.0132901
 9288, 794, 0.14475, 0.0000000E+000, 0.0000000E+000, 0.01329
 9300, 795, 0.14475, 0.0000000E+000, 0.0000000E+000, 0.01329
 9312, 796, 0.14475, 0.0000000E+000, 0.0000000E+000, 0.01329
 9324, 797, 0.14475, 0.0000000E+000, 0.0000000E+000, 0.01329
 9336, 798, 0.14475, 0.0000000E+000, 0.0000000E+000, 0.0132899
 9348, 799, 0.14475, 0.0000000E+000, 0.0000000E+000, 0.0132901
 9360, 800, 0.14475, 0.0000000E+000, 0.0000000E+000, 0.0132901