File: examples/Birch_TGA_Example/Work/Cone_4cd8bha9/birch_tga_1step_10_tga.csv
s,C,g/g,1/s,W/g,W/g
Time,Temp,Mass,MLR,MCC,DSC
 6, 21.0007, 0.999998, 4.369e-07, 6.90494e-16, 0.236481
 12, 22.0007, 0.999995, 5.01762e-07, 8.50835e-16, 0.236626
 18, 23.0007, 0.999992, 5.75705e-07, 1.04693e-15, 0.236791
 24, 24.0007, 0.999988, 6.5992e-07, 1.28643e-15, 0.236979
 30, 25.0007, 0.999984, 7.55746e-07, 1.57852e-15, 0.237193
 36, 26.0007, 0.999979, 8.64679e-07, 1.9343e-15, 0.237436
 42, 27.0007, 0.999973, 9.88398e-07, 2.36705e-15, 0.237712
 48, 28.0007, 0.999967, 1.12878e-06, 2.89274e-15, 0.238026
 54, 29.0007, 0.99996, 1.28792e-06, 3.53049e-15, 0.238381
 60, 30.0007, 0.999951, 1.46815e-06, 4.30318e-15, 0.238783
 66, 31.0007, 0.999942, 1.67208e-06, 5.23816e-15, 0.239238
 72, 32.0007, 0.999931, 1.90261e-06, 6.36807e-15, 0.239752
 78, 33.0007, 0.999919, 2.16297e-06, 7.73185e-15, 0.240332
 84, 34.0007, 0.999905, 2.45672e-06, 9.37583e-15, 0.240988
 90, 35.0007, 0.999889, 2.78785e-06, 1.13552e-14, 0.241726
 96, 36.0007, 0.999872, 3.16074e-06, 1.37353e-14, 0.242557
 102, 37.0007, 0.999851, 3.58024e-06, 1.6594e-14, 0.243492
 108, 38.0007, 0.999829, 4.05172e-06, 2.00232e-14, 0.244543
 114, 39.0007, 0.999803, 4.58107e-06, 2.41322e-14, 0.245723
 120, 40.0007, 0.999773, 5.17477e-06, 2.90496e-14, 0.247046
 126, 41.0007, 0.99974, 5.83993e-06, 3.49278e-14, 0.248528
 132, 42.0007, 0.999703, 6.58435e-06, 4.19463e-14, 0.250187
 138, 43.0007, 0.999661, 7.41652e-06, 5.03169e-14, 0.252041
 144, 44.0007, 0.999614, 8.34569e-06, 6.02887e-14, 0.25411
 150, 45.0007, 0.999561, 9.38191e-06, 7.21546e-14, 0.256418
 156, 46.0007, 0.999501, 1.0536e-05, 8.62588e-14, 0.258988
 162, 47.0007, 0.999434, 1.18198e-05, 1.03005e-13, 0.261846
 168, 48.0007, 0.999359, 1.32457e-05, 1.22866e-13, 0.26502
 174, 49.0007, 0.999275, 1.48273e-05, 1.46397e-13, 0.268541
 180, 50.0007, 0.999181, 1.65786e-05, 1.74245e-13, 0.272438
 186, 51.0007, 0.999076, 1.85149e-05, 2.07168e-13, 0.276746
 192, 52.0007, 0.998958, 2.06518e-05, 2.46049e-13, 0.281499
 198, 53.0007, 0.998827, 2.30056e-05, 2.9192e-13, 0.286734
 204, 54.0007, 0.998682, 2.55932e-05, 3.4598e-13, 0.292488
 210, 55.0007, 0.99852, 2.84316e-05, 4.09627e-13, 0.298798
 216, 56.0007, 0.99834, 3.15376e-05, 4.84485e-13, 0.305701
 222, 57.0007, 0.998141, 3.49279e-05, 5.72442e-13, 0.313233
 228, 58.0007, 0.99792, 3.86181e-05, 6.75685e-13, 0.32143
 234, 59.0006, 0.997676, 4.26227e-05, 7.96752e-13, 0.330321
 240, 60.0006, 0.997408, 4.69538e-05, 9.38583e-13, 0.339934
 246, 61.0006, 0.997112, 5.1621e-05, 1.10458e-12, 0.350289
 252, 62.0006, 0.996788, 5.66299e-05, 1.29867e-12, 0.361396
 258, 63.0006, 0.996432, 6.19815e-05, 1.52539e-12, 0.373258
 264, 64.0006, 0.996043, 6.76707e-05, 1.78999e-12, 0.38586
 270, 65.0006, 0.995619, 7.36851e-05, 2.09849e-12, 0.399173
 276, 66.0006, 0.995158, 8.00034e-05, 2.45787e-12, 0.413148
 282, 67.0006, 0.994659, 8.65938e-05, 2.87611e-12, 0.427712
 288, 68.0006, 0.994119, 9.34127e-05, 3.36242e-12, 0.442764
 294, 69.0006, 0.993537, 0.000100403, 3.92737e-12, 0.458175
 300, 70.0006, 0.992914, 0.000107491, 4.5831e-12, 0.473779
 306, 71.0006, 0.992247, 0.000114589, 5.34351e-12, 0.489374
 312, 72.0005, 0.991539, 0.000121591, 6.22454e-12, 0.504721
 318, 73.0005, 0.990789, 0.000128371, 7.24445e-12, 0.519538
 324, 74.0005, 0.989999, 0.000134788, 8.42411e-12, 0.533507
 330, 75.0005, 0.989172, 0.000140686, 9.78737e-12, 0.546273
 336, 76.0005, 0.988312, 0.000145893, 1.13615e-11, 0.557452
 342, 77.0005, 0.987423, 0.000150228, 1.31775e-11, 0.566639
 348, 78.0005, 0.986511, 0.000153509, 1.5271e-11, 0.573423
 354, 79.0005, 0.985583, 0.000155554, 1.76822e-11, 0.577402
 360, 80.0005, 0.984647, 0.000156198, 2.04571e-11, 0.578202
 366, 81.0005, 0.983712, 0.000155296, 2.3648e-11, 0.575505
 372, 82.0005, 0.982787, 0.00015274, 2.73144e-11, 0.569073
 378, 83.0005, 0.981883, 0.00014847, 3.15237e-11, 0.558774
 384, 84.0005, 0.981009, 0.000142481, 3.63524e-11, 0.54461
 390, 85.0005, 0.980176, 0.00013484, 4.18875e-11, 0.526736
 396, 86.0005, 0.979394, 0.000125686, 4.82274e-11, 0.505472
 402, 87.0006, 0.978671, 0.000115232, 5.54833e-11, 0.481311
 408, 88.0006, 0.978013, 0.000103764, 6.37814e-11, 0.454901
 414, 89.0006, 0.977427, 9.16268e-05, 7.32642e-11, 0.427026
 420, 90.0006, 0.976915, 7.92048e-05, 8.40926e-11, 0.39856
 426, 91.0006, 0.976476, 6.69e-05, 9.64484e-11, 0.370411
 432, 92.0006, 0.976111, 5.51024e-05, 1.10537e-10, 0.343461
 438, 93.0007, 0.975814, 4.41606e-05, 1.26588e-10, 0.318496
 444, 94.0007, 0.975579, 3.43553e-05, 1.44864e-10, 0.296147
 450, 95.0007, 0.975399, 2.58783e-05, 1.65657e-10, 0.276842
 456, 96.0007, 0.975266, 1.88216e-05, 1.89296e-10, 0.260783
 462, 97.0007, 0.97517, 1.31783e-05, 2.16153e-10, 0.247949
 468, 98.0007, 0.975105, 8.85397e-06, 2.46644e-10, 0.23812
 474, 99.0007, 0.975062, 5.68824e-06, 2.81236e-10, 0.230929
 480, 100.001, 0.975035, 3.48129e-06, 3.20455e-10, 0.225917
 486, 101.001, 0.975018, 2.02144e-06, 3.64887e-10, 0.222604
 492, 102.001, 0.975009, 1.10874e-06, 4.15193e-10, 0.220533
 498, 103.001, 0.975004, 5.71736e-07, 4.72111e-10, 0.219315
 504, 104.001, 0.975002, 2.75767e-07, 5.36465e-10, 0.218643
 510, 105.001, 0.975001, 1.23733e-07, 6.09179e-10, 0.218299
 516, 106.001, 0.975, 5.13397e-08, 6.91286e-10, 0.218135
 522, 107.001, 0.975, 1.95741e-08, 7.83938e-10, 0.218063
 528, 108.001, 0.975, 6.81077e-09, 8.88421e-10, 0.218034
 534, 109.001, 0.975, 2.14683e-09, 1.00617e-09, 0.218023
 540, 110.001, 0.975, 6.08206e-10, 1.13879e-09, 0.21802
 546, 111.001, 0.975, 1.53569e-10, 1.28805e-09, 0.218019
 552, 112.001, 0.975, 3.42629e-11, 1.45595e-09, 0.218018
 558, 113.001, 0.975, 6.71248e-12, 1.64469e-09, 0.218018
 564, 114.001, 0.975, 1.1715e-12, 1.85672e-09, 0.218018
 570, 115.001, 0.975, 2.14685e-13, 2.09479e-09, 0.218018
 576, 116.001, 0.975, 7.88383e-14, 2.36191e-09, 0.218018
 582, 117.001, 0.975, 6.85492e-14, 2.66145e-09, 0.218018
 588, 118.001, 0.975, 7.50974e-14, 2.99716e-09, 0.218018
 594, 119.001, 0.975, 8.43405e-14, 3.37316e-09, 0.218018
 600, 120.001, 0.975, 9.48521e-14, 3.79406e-09, 0.218018
 606, 121.001, 0.975, 1.06623e-13, 4.26493e-09, 0.218018
 612, 122.001, 0.975, 1.19785e-13, 4.79139e-09, 0.218018
 618, 123.001, 0.975, 1.34492e-13, 5.37969e-09, 0.218018
 624, 124.001, 0.975, 1.50917e-13, 6.03669e-09, 0.218018
 630, 125.001, 0.975, 1.6925e-13, 6.77001e-09, 0.218018
 636, 126.001, 0.975, 1.89701e-13, 7.58806e-09, 0.218018
 642, 127.001, 0.975, 2.12502e-13, 8.5001e-09, 0.218018
 648, 128.001, 0.975, 2.37909e-13, 9.51637e-09, 0.218018
 654, 129.001, 0.975, 2.66204e-13, 1.06482e-08, 0.218018
 660, 130.001, 0.975, 2.97699e-13, 1.19079e-08, 0.218018
 666, 131.001, 0.975, 3.32735e-13, 1.33094e-08, 0.218018
 672, 132.001, 0.975, 3.7169e-13, 1.48676e-08, 0.218018
 678, 133.001, 0.975, 4.1498e-13, 1.65992e-08, 0.218018
 684, 134.001, 0.975, 4.63061e-13, 1.85224e-08, 0.218018
 690, 135.001, 0.975, 5.16435e-13, 2.06574e-08, 0.218018
 696, 136.001, 0.975, 5.75654e-13, 2.30262e-08, 0.218018
 702, 137.001, 0.975, 6.41324e-13, 2.5653e-08, 0.218018
 708, 138.001, 0.975, 7.14111e-13, 2.85644e-08, 0.218018
 714, 139.001, 0.975, 7.94744e-13, 3.17897e-08, 0.218018
 720, 140.001, 0.975, 8.84023e-13, 3.53609e-08, 0.218018
 726, 141.001, 0.975, 9.82826e-13, 3.9313e-08, 0.218018
 732, 142.001, 0.975, 1.09211e-12, 4.36846e-08, 0.218018
 738, 143.001, 0.975, 1.21294e-12, 4.85176e-08, 0.218018
 744, 144.001, 0.975, 1.34646e-12, 5.38583e-08, 0.218018
 750, 145.001, 0.975, 1.49392e-12, 5.9757e-08, 0.218018
 756, 146.001, 0.975, 1.65672e-12, 6.62688e-08, 0.218018
 762, 147.001, 0.975, 1.83635e-12, 7.34541e-08, 0.218018
 768, 148.001, 0.975, 2.03447e-12, 8.13787e-08, 0.218018
 774, 149.001, 0.975, 2.25286e-12, 9.01144e-08, 0.218018
 780, 150.001, 0.975, 2.4935e-12, 9.97399e-08, 0.218018
 786, 151.001, 0.975, 2.75851e-12, 1.10341e-07, 0.218018
 792, 152.001, 0.975, 3.05025e-12, 1.2201e-07, 0.218018
 798, 153.001, 0.975, 3.37125e-12, 1.3485e-07, 0.218018
 804, 154.001, 0.975, 3.72428e-12, 1.48971e-07, 0.218018
 810, 155.001, 0.975, 4.11237e-12, 1.64495e-07, 0.218018
 816, 156.001, 0.975, 4.53881e-12, 1.81552e-07, 0.218018
 822, 157.001, 0.975, 5.00716e-12, 2.00287e-07, 0.218018
 828, 158.001, 0.975, 5.52133e-12, 2.20853e-07, 0.218018
 834, 159.001, 0.975, 6.08554e-12, 2.43422e-07, 0.218018
 840, 160.001, 0.975, 6.7044e-12, 2.68176e-07, 0.218018
 846, 161.001, 0.975, 7.3829e-12, 2.95316e-07, 0.218018
 852, 162.001, 0.975, 8.12645e-12, 3.25058e-07, 0.218018
 858, 163.001, 0.975, 8.94096e-12, 3.57639e-07, 0.218018
 864, 164.001, 0.975, 9.83281e-12, 3.93313e-07, 0.218018
 870, 165.001, 0.975, 1.08089e-11, 4.32357e-07, 0.218018
 876, 166.001, 0.975, 1.18768e-11, 4.75073e-07, 0.218018
 882, 167.001, 0.975, 1.30446e-11, 5.21786e-07, 0.218018
 888, 168.001, 0.975, 1.43212e-11, 5.72848e-07, 0.218018
 894, 169.001, 0.975, 1.5716e-11, 6.28642e-07, 0.218018
 900, 170.001, 0.975, 1.72395e-11, 6.8958e-07, 0.218018
 906, 171.001, 0.975, 1.89028e-11, 7.56111e-07, 0.218018
 912, 172.001, 0.975, 2.07179e-11, 8.28717e-07, 0.218018
 918, 173.001, 0.975, 2.26981e-11, 9.07923e-07, 0.218018
 924, 174.001, 0.975, 2.48573e-11, 9.94292e-07, 0.218018
 930, 175.001, 0.975, 2.72109e-11, 1.08844e-06, 0.218018
 936, 176.001, 0.975, 2.97754e-11, 1.19101e-06, 0.218018
 942, 177.001, 0.975, 3.25685e-11, 1.30274e-06, 0.218018
 948, 178.001, 0.975, 3.56094e-11, 1.42438e-06, 0.218018
 954, 179.001, 0.975, 3.8919e-11, 1.55676e-06, 0.218018
 960, 180.001, 0.975, 4.25194e-11, 1.70078e-06, 0.218018
 966, 181.001, 0.975, 4.64348e-11, 1.85739e-06, 0.218018
 972, 182.001, 0.975, 5.06911e-11, 2.02765e-06, 0.218018
 978, 183.001, 0.975, 5.53163e-11, 2.21265e-06, 0.218018
 984, 184.001, 0.975, 6.03405e-11, 2.41362e-06, 0.218018
 990, 185.001, 0.975, 6.57961e-11, 2.63184e-06, 0.218018
 996, 186.001, 0.975, 7.17178e-11, 2.86871e-06, 0.218018
 1002, 187.001, 0.975, 7.81432e-11, 3.12573e-06, 0.218018
 1008, 188.001, 0.975, 8.51126e-11, 3.4045e-06, 0.218018
 1014, 189.001, 0.975, 9.26693e-11, 3.70677e-06, 0.218018
 1020, 190.001, 0.975, 1.0086e-10, 4.0344e-06, 0.218018
 1026, 191.001, 0.975, 1.09734e-10, 4.38938e-06, 0.218018
 1032, 192.001, 0.975, 1.19346e-10, 4.77386e-06, 0.218018
 1038, 193.001, 0.975, 1.29754e-10, 5.19015e-06, 0.218018
 1044, 194.001, 0.975, 1.41018e-10, 5.64072e-06, 0.218018
 1050, 195.001, 0.975, 1.53206e-10, 6.12823e-06, 0.218018
 1056, 196.001, 0.975, 1.66388e-10, 6.65551e-06, 0.218018
 1062, 197.001, 0.975, 1.80641e-10, 7.22563e-06, 0.218018
 1068, 198.001, 0.975, 1.96046e-10, 7.84186e-06, 0.218018
 1074, 199.001, 0.975, 2.12692e-10, 8.50768e-06, 0.218018
 1080, 200.001, 0.975, 2.30671e-10, 9.22686e-06, 0.218018
 1086, 201.001, 0.975, 2.50085e-10, 1.00034e-05, 0.218019
 1092, 202.001, 0.975, 2.7104e-10, 1.08416e-05, 0.218018
 1098, 203.001, 0.975, 2.93652e-10, 1.17461e-05, 0.218019
 1104, 204.001, 0.975, 3.18044e-10, 1.27218e-05, 0.218018
 1110, 205.001, 0.975, 3.44347e-10, 1.37739e-05, 0.218019
 1116, 206.001, 0.975, 3.72701e-10, 1.4908e-05, 0.218019
 1122, 207.001, 0.975, 4.03257e-10, 1.61303e-05, 0.218019
 1128, 208.001, 0.975, 4.36175e-10, 1.7447e-05, 0.218019
 1134, 209.001, 0.975, 4.71627e-10, 1.88651e-05, 0.218019
 1140, 210.001, 0.975, 5.09796e-10, 2.03918e-05, 0.218019
 1146, 211.001, 0.975, 5.50877e-10, 2.20351e-05, 0.218019
 1152, 212.001, 0.975, 5.95077e-10, 2.38031e-05, 0.218019
 1158, 213.001, 0.975, 6.4262e-10, 2.57048e-05, 0.218019
 1164, 214.001, 0.975, 6.93743e-10, 2.77497e-05, 0.218019
 1170, 215.001, 0.975, 7.48697e-10, 2.99479e-05, 0.218019
 1176, 216.001, 0.975, 8.07754e-10, 3.23101e-05, 0.218019
 1182, 217.001, 0.975, 8.71198e-10, 3.48479e-05, 0.218019
 1188, 218.001, 0.975, 9.39336e-10, 3.75735e-05, 0.218019
 1194, 219.001, 0.975, 1.01249e-09, 4.04998e-05, 0.218019
 1200, 220.001, 0.975, 1.09102e-09, 4.36407e-05, 0.218019
 1206, 221.001, 0.975, 1.17528e-09, 4.7011e-05, 0.218019
 1212, 222.001, 0.975, 1.26566e-09, 5.06264e-05, 0.218019
 1218, 223.001, 0.975, 1.36259e-09, 5.45036e-05, 0.218019
 1224, 224.001, 0.975, 1.46651e-09, 5.86602e-05, 0.218019
 1230, 225.001, 0.975, 1.57788e-09, 6.31153e-05, 0.218019
 1236, 226.001, 0.975, 1.69722e-09, 6.78887e-05, 0.218019
 1242, 227.001, 0.975, 1.82505e-09, 7.30019e-05, 0.218019
 1248, 228.001, 0.975, 1.96194e-09, 7.84775e-05, 0.218019
 1254, 229.001, 0.975, 2.10849e-09, 8.43395e-05, 0.218019
 1260, 230.001, 0.975, 2.26533e-09, 9.06134e-05, 0.218019
 1266, 231.001, 0.975, 2.43316e-09, 9.73262e-05, 0.218019
 1272, 232.001, 0.975, 2.61267e-09, 0.000104507, 0.218019
 1278, 233.001, 0.975, 2.80464e-09, 0.000112186, 0.218019
 1284, 234.001, 0.975, 3.00988e-09, 0.000120395, 0.218019
 1290, 235.001, 0.975, 3.22923e-09, 0.000129169, 0.218019
 1296, 236.001, 0.975, 3.46362e-09, 0.000138545, 0.218019
 1302, 237.001, 0.975, 3.71399e-09, 0.00014856, 0.218019
 1308, 238.001, 0.975, 3.98138e-09, 0.000159255, 0.218019
 1314, 239.001, 0.975, 4.26686e-09, 0.000170674, 0.218019
 1320, 240.001, 0.975, 4.57158e-09, 0.000182863, 0.21802
 1326, 241.001, 0.975, 4.89674e-09, 0.00019587, 0.21802
 1332, 242.001, 0.975, 5.24363e-09, 0.000209745, 0.21802
 1338, 243.001, 0.975, 5.61361e-09, 0.000224544, 0.21802
 1344, 244.001, 0.974999, 6.0081e-09, 0.000240324, 0.21802
 1350, 245.001, 0.974999, 6.42864e-09, 0.000257145, 0.21802
 1356, 246.001, 0.974999, 6.87681e-09, 0.000275073, 0.21802
 1362, 247.001, 0.974999, 7.35433e-09, 0.000294173, 0.21802
 1368, 248.001, 0.974999, 7.86298e-09, 0.000314519, 0.21802
 1374, 249.001, 0.974999, 8.40465e-09, 0.000336186, 0.21802
 1380, 250.001, 0.974999, 8.98135e-09, 0.000359254, 0.218021
 1386, 251.001, 0.974999, 9.5952e-09, 0.000383808, 0.218021
 1392, 252.001, 0.974999, 1.02484e-08, 0.000409937, 0.218021
 1398, 253.001, 0.974999, 1.09434e-08, 0.000437734, 0.218021
 1404, 254.001, 0.974999, 1.16825e-08, 0.000467301, 0.218021
 1410, 255.001, 0.974999, 1.24685e-08, 0.000498741, 0.218021
 1416, 256.001, 0.974999, 1.33041e-08, 0.000532165, 0.218022
 1422, 257.001, 0.974999, 1.41923e-08, 0.000567691, 0.218022
 1428, 258.001, 0.974999, 1.5136e-08, 0.00060544, 0.218022
 1434, 259.001, 0.974999, 1.61386e-08, 0.000645544, 0.218022
 1440, 260.001, 0.974998, 1.72035e-08, 0.000688139, 0.218023
 1446, 261.001, 0.974998, 1.83342e-08, 0.000733368, 0.218023
 1452, 262.001, 0.974998, 1.95346e-08, 0.000781384, 0.218023
 1458, 263.001, 0.974998, 2.08087e-08, 0.000832348, 0.218023
 1464, 264.001, 0.974998, 2.21607e-08, 0.000886426, 0.218024
 1470, 265.001, 0.974998, 2.35949e-08, 0.000943798, 0.218024
 1476, 266.001, 0.974998, 2.51162e-08, 0.00100465, 0.218024
 1482, 267.001, 0.974998, 2.67294e-08, 0.00106917, 0.218025
 1488, 268.001, 0.974997, 2.84396e-08, 0.00113758, 0.218025
 1494, 269.001, 0.974997, 3.02523e-08, 0.00121009, 0.218026
 1500, 270.001, 0.974997, 3.21733e-08, 0.00128693, 0.218026
 1506, 271.001, 0.974997, 3.42085e-08, 0.00136834, 0.218027
 1512, 272.001, 0.974997, 3.63642e-08, 0.00145457, 0.218027
 1518, 273.001, 0.974996, 3.86472e-08, 0.00154589, 0.218028
 1524, 274.001, 0.974996, 4.10643e-08, 0.00164257, 0.218028
 1530, 275.001, 0.974996, 4.3623e-08, 0.00174492, 0.218029
 1536, 276.001, 0.974996, 4.63308e-08, 0.00185323, 0.218029
 1542, 277.001, 0.974995, 4.9196e-08, 0.00196784, 0.21803
 1548, 278.001, 0.974995, 5.2227e-08, 0.00208908, 0.218031
 1554, 279.001, 0.974995, 5.54328e-08, 0.00221731, 0.218032
 1560, 280.001, 0.974994, 5.88226e-08, 0.00235291, 0.218032
 1566, 281.001, 0.974994, 6.24064e-08, 0.00249626, 0.218033
 1572, 282.001, 0.974994, 6.61944e-08, 0.00264778, 0.218034
 1578, 283.001, 0.974993, 7.01974e-08, 0.0028079, 0.218035
 1584, 284.001, 0.974993, 7.44269e-08, 0.00297708, 0.218036
 1590, 285.001, 0.974992, 7.88946e-08, 0.00315578, 0.218037
 1596, 286.001, 0.974992, 8.36131e-08, 0.00334452, 0.218038
 1602, 287.001, 0.974991, 8.85953e-08, 0.00354381, 0.21804
 1608, 288.001, 0.974991, 9.38551e-08, 0.00375421, 0.218041
 1614, 289.001, 0.97499, 9.94068e-08, 0.00397627, 0.218042
 1620, 290.001, 0.97499, 1.05265e-07, 0.00421061, 0.218044
 1626, 291.001, 0.974989, 1.11447e-07, 0.00445786, 0.218045
 1632, 292.001, 0.974988, 1.17967e-07, 0.00471868, 0.218047
 1638, 293.001, 0.974988, 1.24844e-07, 0.00499375, 0.218048
 1644, 294.001, 0.974987, 1.32095e-07, 0.00528379, 0.21805
 1650, 295.001, 0.974986, 1.39739e-07, 0.00558958, 0.218052
 1656, 296.001, 0.974985, 1.47797e-07, 0.00591189, 0.218054
 1662, 297.001, 0.974984, 1.56289e-07, 0.00625155, 0.218056
 1668, 298.001, 0.974983, 1.65236e-07, 0.00660944, 0.218058
 1674, 299.001, 0.974982, 1.74661e-07, 0.00698646, 0.21806
 1680, 300.001, 0.974981, 1.84589e-07, 0.00738355, 0.218062
 1686, 301.001, 0.97498, 1.95043e-07, 0.00780171, 0.218065
 1692, 302.001, 0.974979, 2.06049e-07, 0.00824197, 0.218067
 1698, 303.001, 0.974977, 2.17635e-07, 0.00870541, 0.21807
 1704, 304.001, 0.974976, 2.29829e-07, 0.00919317, 0.218073
 1710, 305.001, 0.974975, 2.42661e-07, 0.00970643, 0.218076
 1716, 306.001, 0.974973, 2.5616e-07, 0.0102464, 0.218079
 1722, 307.001, 0.974972, 2.70361e-07, 0.0108144, 0.218083
 1728, 308.001, 0.97497, 2.85295e-07, 0.0114118, 0.218086
 1734, 309.001, 0.974968, 3.00999e-07, 0.01204, 0.21809
 1740, 310.001, 0.974966, 3.17509e-07, 0.0127003, 0.218094
 1746, 311.001, 0.974964, 3.34863e-07, 0.0133945, 0.218098
 1752, 312.001, 0.974962, 3.53101e-07, 0.014124, 0.218102
 1758, 313.001, 0.97496, 3.72265e-07, 0.0148906, 0.218107
 1764, 314.001, 0.974958, 3.92399e-07, 0.015696, 0.218111
 1770, 315.001, 0.974955, 4.13547e-07, 0.0165419, 0.218116
 1776, 316.001, 0.974953, 4.35758e-07, 0.0174303, 0.218121
 1782, 317.001, 0.97495, 4.5908e-07, 0.0183632, 0.218127
 1788, 318.001, 0.974947, 4.83564e-07, 0.0193426, 0.218133
 1794, 319.001, 0.974944, 5.09265e-07, 0.0203706, 0.218139
 1800, 320.001, 0.974941, 5.36238e-07, 0.0214495, 0.218145
 1806, 321.001, 0.974938, 5.64542e-07, 0.0225817, 0.218152
 1812, 322.001, 0.974935, 5.94237e-07, 0.0237695, 0.218159
 1818, 323.001, 0.974931, 6.25386e-07, 0.0250154, 0.218166
 1824, 324.001, 0.974927, 6.58055e-07, 0.0263222, 0.218174
 1830, 325.001, 0.974923, 6.92312e-07, 0.0276925, 0.218182
 1836, 326.001, 0.974919, 7.2823e-07, 0.0291292, 0.21819
 1842, 327.001, 0.974914, 7.65881e-07, 0.0306352, 0.218199
 1848, 328.001, 0.974909, 8.05344e-07, 0.0322138, 0.218208
 1854, 329.001, 0.974905, 8.46698e-07, 0.0338679, 0.218218
 1860, 330.001, 0.974899, 8.90028e-07, 0.0356011, 0.218228
 1866, 331.001, 0.974894, 9.35421e-07, 0.0374168, 0.218238
 1872, 332.001, 0.974888, 9.82966e-07, 0.0393187, 0.218249
 1878, 333.001, 0.974882, 1.03276e-06, 0.0413104, 0.218261
 1884, 334.001, 0.974876, 1.0849e-06, 0.0433959, 0.218273
 1890, 335.001, 0.974869, 1.13948e-06, 0.0455793, 0.218286
 1896, 336.001, 0.974862, 1.19662e-06, 0.0478648, 0.218299
 1902, 337.001, 0.974855, 1.25642e-06, 0.0502569, 0.218313
 1908, 338.001, 0.974847, 1.319e-06, 0.05276, 0.218328
 1914, 339.001, 0.974839, 1.38448e-06, 0.055379, 0.218343
 1920, 340.001, 0.97483, 1.45297e-06, 0.0581188, 0.218359
 1926, 341.001, 0.974821, 1.52461e-06, 0.0609845, 0.218376
 1932, 342.001, 0.974812, 1.59954e-06, 0.0639815, 0.218393
 1938, 343.001, 0.974802, 1.67788e-06, 0.0671153, 0.218411
 1944, 344.001, 0.974792, 1.75979e-06, 0.0703916, 0.21843
 1950, 345.001, 0.974781, 1.84541e-06, 0.0738163, 0.21845
 1956, 346.001, 0.97477, 1.9349e-06, 0.0773958, 0.218471
 1962, 347.001, 0.974758, 2.02841e-06, 0.0811364, 0.218493
 1968, 348.001, 0.974745, 2.12612e-06, 0.0850449, 0.218515
 1974, 349.001, 0.974732, 2.2282e-06, 0.089128, 0.218539
 1980, 350.001, 0.974719, 2.33483e-06, 0.093393, 0.218564
 1986, 351.001, 0.974704, 2.44619e-06, 0.0978474, 0.218589
 1992, 352.001, 0.974689, 2.56247e-06, 0.102499, 0.218616
 1998, 353.001, 0.974674, 2.68389e-06, 0.107355, 0.218644
 2004, 354.001, 0.974657, 2.81064e-06, 0.112425, 0.218674
 2010, 355.001, 0.97464, 2.94293e-06, 0.117717, 0.218704
 2016, 356.001, 0.974622, 3.08101e-06, 0.12324, 0.218736
 2022, 357.001, 0.974603, 3.22509e-06, 0.129003, 0.218769
 2028, 358.001, 0.974583, 3.37541e-06, 0.135016, 0.218804
 2034, 359.001, 0.974562, 3.53223e-06, 0.141289, 0.21884
 2040, 360.001, 0.974541, 3.69579e-06, 0.147832, 0.218878
 2046, 361.001, 0.974518, 3.86638e-06, 0.154655, 0.218917
 2052, 362.001, 0.974494, 4.04425e-06, 0.16177, 0.218959
 2058, 363.001, 0.974469, 4.22971e-06, 0.169188, 0.219001
 2064, 364.001, 0.974443, 4.42304e-06, 0.176922, 0.219046
 2070, 365.001, 0.974416, 4.62456e-06, 0.184982, 0.219092
 2076, 366.001, 0.974388, 4.83457e-06, 0.193383, 0.21914
 2082, 367.001, 0.974358, 5.05341e-06, 0.202136, 0.219191
 2088, 368.001, 0.974327, 5.28142e-06, 0.211257, 0.219243
 2094, 369.001, 0.974295, 5.51894e-06, 0.220758, 0.219298
 2100, 370.001, 0.974261, 5.76635e-06, 0.230654, 0.219355
 2106, 371.001, 0.974226, 6.02402e-06, 0.240961, 0.219414
 2112, 372.001, 0.974189, 6.29234e-06, 0.251693, 0.219475
 2118, 373.001, 0.97415, 6.5717e-06, 0.262868, 0.219539
 2124, 374.001, 0.97411, 6.86253e-06, 0.274501, 0.219606
 2130, 375.001, 0.974068, 7.16526e-06, 0.286611, 0.219676
 2136, 376.001, 0.974024, 7.48033e-06, 0.299213, 0.219748
 2142, 377.001, 0.973978, 7.8082e-06, 0.312328, 0.219823
 2148, 378.001, 0.97393, 8.14935e-06, 0.325974, 0.219901
 2154, 379.001, 0.97388, 8.50426e-06, 0.340171, 0.219982
 2160, 380.001, 0.973828, 8.87345e-06, 0.354938, 0.220067
 2166, 381.001, 0.973774, 9.25743e-06, 0.370297, 0.220154
 2172, 382.001, 0.973717, 9.65675e-06, 0.38627, 0.220246
 2178, 383.001, 0.973658, 1.0072e-05, 0.402879, 0.220341
 2184, 384.001, 0.973596, 1.05037e-05, 0.420146, 0.220439
 2190, 385.001, 0.973532, 1.09524e-05, 0.438096, 0.220541
 2196, 386.001, 0.973464, 1.14188e-05, 0.456754, 0.220648
 2202, 387.001, 0.973395, 1.19036e-05, 0.476144, 0.220758
 2208, 388.001, 0.973322, 1.24073e-05, 0.496293, 0.220873
 2214, 389.001, 0.973246, 1.29307e-05, 0.517227, 0.220992
 2220, 390.001, 0.973166, 1.34744e-05, 0.538975, 0.221116
 2226, 391.001, 0.973084, 1.40391e-05, 0.561566, 0.221245
 2232, 392.001, 0.972998, 1.46257e-05, 0.585028, 0.221378
 2238, 393.001, 0.972908, 1.52348e-05, 0.609393, 0.221517
 2244, 394.001, 0.972815, 1.58673e-05, 0.634692, 0.22166
 2250, 395.001, 0.972718, 1.65239e-05, 0.660958, 0.22181
 2256, 396.001, 0.972617, 1.72056e-05, 0.688223, 0.221964
 2262, 397.001, 0.972511, 1.79131e-05, 0.716523, 0.222125
 2268, 398.001, 0.972402, 1.86473e-05, 0.745892, 0.222291
 2274, 399.001, 0.972287, 1.94092e-05, 0.776368, 0.222464
 2280, 400.001, 0.972169, 2.01997e-05, 0.807987, 0.222643
 2286, 401.001, 0.972045, 2.10198e-05, 0.84079, 0.222829
 2292, 402.001, 0.971916, 2.18704e-05, 0.874816, 0.223021
 2298, 403.001, 0.971782, 2.27526e-05, 0.910105, 0.223221
 2304, 404.001, 0.971643, 2.36675e-05, 0.9467, 0.223428
 2310, 405.001, 0.971498, 2.46161e-05, 0.984645, 0.223643
 2316, 406.001, 0.971348, 2.55996e-05, 1.02398, 0.223865
 2322, 407.001, 0.971191, 2.66191e-05, 1.06477, 0.224095
 2328, 408.001, 0.971028, 2.76758e-05, 1.10703, 0.224333
 2334, 409.001, 0.970859, 2.8771e-05, 1.15084, 0.224581
 2340, 410.001, 0.970683, 2.99057e-05, 1.19623, 0.224836
 2346, 411.001, 0.9705, 3.10815e-05, 1.24326, 0.225101
 2352, 412.001, 0.97031, 3.22995e-05, 1.29198, 0.225376
 2358, 413.001, 0.970112, 3.35612e-05, 1.34245, 0.22566
 2364, 414.001, 0.969907, 3.48679e-05, 1.39471, 0.225954
 2370, 415.001, 0.969694, 3.6221e-05, 1.44884, 0.226258
 2376, 416.001, 0.969472, 3.76221e-05, 1.50489, 0.226573
 2382, 417.001, 0.969242, 3.90727e-05, 1.56291, 0.226899
 2388, 418.001, 0.969003, 4.05743e-05, 1.62297, 0.227236
 2394, 419.001, 0.968755, 4.21284e-05, 1.68514, 0.227585
 2400, 420.001, 0.968498, 4.37368e-05, 1.74947, 0.227946
 2406, 421.001, 0.96823, 4.54011e-05, 1.81604, 0.228319
 2412, 422.001, 0.967953, 4.7123e-05, 1.88492, 0.228705
 2418, 423.001, 0.967665, 4.89043e-05, 1.95617, 0.229104
 2424, 424.001, 0.967366, 5.07468e-05, 2.02987, 0.229516
 2430, 425.001, 0.967055, 5.26524e-05, 2.10609, 0.229943
 2436, 426.001, 0.966734, 5.46228e-05, 2.18491, 0.230383
 2442, 427.001, 0.9664, 5.66602e-05, 2.26641, 0.230839
 2448, 428.001, 0.966054, 5.87664e-05, 2.35066, 0.231309
 2454, 429.001, 0.965694, 6.09435e-05, 2.43774, 0.231795
 2460, 430.001, 0.965322, 6.31936e-05, 2.52774, 0.232297
 2466, 431.001, 0.964936, 6.55188e-05, 2.62075, 0.232815
 2472, 432.001, 0.964536, 6.79213e-05, 2.71685, 0.233351
 2478, 433.001, 0.964121, 7.04033e-05, 2.81613, 0.233903
 2484, 434.001, 0.963691, 7.29671e-05, 2.91868, 0.234474
 2490, 435.001, 0.963245, 7.5615e-05, 3.0246, 0.235063
 2496, 436.001, 0.962783, 7.83494e-05, 3.13398, 0.235671
 2502, 437.001, 0.962305, 8.11727e-05, 3.24691, 0.236298
 2508, 438.001, 0.961809, 8.40874e-05, 3.3635, 0.236945
 2514, 439.001, 0.961295, 8.7096e-05, 3.48384, 0.237613
 2520, 440.001, 0.960763, 9.02011e-05, 3.60804, 0.238301
 2526, 441.001, 0.960213, 9.34053e-05, 3.73621, 0.239011
 2532, 442.001, 0.959642, 9.67113e-05, 3.86845, 0.239744
 2538, 443.001, 0.959052, 0.000100122, 4.00487, 0.240498
 2544, 444.001, 0.958441, 0.00010364, 4.14558, 0.241276
 2550, 445.001, 0.957808, 0.000107267, 4.2907, 0.242078
 2556, 446.001, 0.957153, 0.000111008, 4.44033, 0.242905
 2562, 447.001, 0.956476, 0.000114865, 4.5946, 0.243756
 2568, 448.001, 0.955774, 0.000118841, 4.75362, 0.244633
 2574, 449.001, 0.955049, 0.000122938, 4.91752, 0.245536
 2580, 450.001, 0.954299, 0.00012716, 5.08642, 0.246466
 2586, 451.001, 0.953523, 0.000131511, 5.26044, 0.247424
 2592, 452.001, 0.95272, 0.000135992, 5.4397, 0.248409
 2598, 453.001, 0.951891, 0.000140608, 5.62434, 0.249424
 2604, 454.001, 0.951033, 0.000145362, 5.81448, 0.250468
 2610, 455.001, 0.950146, 0.000150256, 6.01025, 0.251542
 2616, 456.001, 0.949229, 0.000155295, 6.21179, 0.252647
 2622, 457.001, 0.948282, 0.000160481, 6.41923, 0.253783
 2628, 458.001, 0.947303, 0.000165818, 6.63271, 0.254952
 2634, 459.001, 0.946292, 0.000171309, 6.85235, 0.256153
 2640, 460.001, 0.945247, 0.000176958, 7.0783, 0.257388
 2646, 461.001, 0.944168, 0.000182767, 7.31069, 0.258656
 2652, 462.001, 0.943054, 0.000188742, 7.54967, 0.25996
 2658, 463.001, 0.941903, 0.000194884, 7.79537, 0.261299
 2664, 464.001, 0.940715, 0.000201198, 8.04792, 0.262675
 2670, 465.001, 0.939488, 0.000207687, 8.30749, 0.264087
 2676, 466.001, 0.938222, 0.000214355, 8.57419, 0.265537
 2682, 467.001, 0.936915, 0.000221204, 8.84817, 0.267025
 2688, 468.001, 0.935567, 0.000228239, 9.12958, 0.268552
 2694, 469.001, 0.934176, 0.000235464, 9.41854, 0.270118
 2700, 470.001, 0.932741, 0.00024288, 9.71521, 0.271725
 2706, 471.001, 0.931261, 0.000250493, 10.0197, 0.273372
 2712, 472.001, 0.929735, 0.000258305, 10.3322, 0.275061
 2718, 473.001, 0.928161, 0.00026632, 10.6528, 0.276791
 2724, 474.001, 0.926538, 0.000274541, 10.9816, 0.278565
 2730, 475.001, 0.924866, 0.000282971, 11.3188, 0.280381
 2736, 476.001, 0.923142, 0.000291614, 11.6645, 0.282241
 2742, 477.001, 0.921366, 0.000300472, 12.0189, 0.284146
 2748, 478.001, 0.919536, 0.00030955, 12.382, 0.286095
 2754, 479.001, 0.917651, 0.000318849, 12.754, 0.28809
 2760, 480.001, 0.915709, 0.000328374, 13.1349, 0.29013
 2766, 481.001, 0.91371, 0.000338125, 13.525, 0.292216
 2772, 482.001, 0.911651, 0.000348107, 13.9243, 0.294349
 2778, 483.001, 0.909532, 0.000358322, 14.3329, 0.296528
 2784, 484.001, 0.907351, 0.000368772, 14.7509, 0.298755
 2790, 485.001, 0.905106, 0.00037946, 15.1784, 0.301029
 2796, 486.001, 0.902797, 0.000390387, 15.6155, 0.303351
 2802, 487.001, 0.900421, 0.000401556, 16.0622, 0.30572
 2808, 488.001, 0.897977, 0.000412968, 16.5187, 0.308138
 2814, 489.001, 0.895465, 0.000424625, 16.985, 0.310603
 2820, 490.001, 0.892881, 0.000436527, 17.4611, 0.313116
 2826, 491.001, 0.890226, 0.000448677, 17.9471, 0.315678
 2832, 492.001, 0.887497, 0.000461075, 18.443, 0.318287
 2838, 493.001, 0.884692, 0.000473721, 18.9488, 0.320943
 2844, 494.001, 0.881811, 0.000486615, 19.4646, 0.323647
 2850, 495.001, 0.878852, 0.000499758, 19.9903, 0.326397
 2856, 496.001, 0.875814, 0.000513149, 20.526, 0.329194
 2862, 497.001, 0.872694, 0.000526788, 21.0715, 0.332037
 2868, 498.001, 0.869491, 0.000540672, 21.6269, 0.334925
 2874, 499.001, 0.866205, 0.000554801, 22.1921, 0.337858
 2880, 500.001, 0.862833, 0.000569173, 22.7669, 0.340834
 2886, 501.001, 0.859374, 0.000583786, 23.3514, 0.343853
 2892, 502.001, 0.855827, 0.000598636, 23.9454, 0.346914
 2898, 503.001, 0.85219, 0.00061372, 24.5488, 0.350015
 2904, 504.001, 0.848462, 0.000629034, 25.1614, 0.353155
 2910, 505.001, 0.844641, 0.000644575, 25.783, 0.356333
 2916, 506.001, 0.840726, 0.000660337, 26.4135, 0.359547
 2922, 507.001, 0.836716, 0.000676315, 27.0526, 0.362795
 2928, 508.001, 0.83261, 0.000692502, 27.7001, 0.366076
 2934, 509.001, 0.828406, 0.000708893, 28.3557, 0.369387
 2940, 510.001, 0.824103, 0.00072548, 29.0192, 0.372727
 2946, 511.001, 0.8197, 0.000742255, 29.6902, 0.376093
 2952, 512.001, 0.815195, 0.000759209, 30.3684, 0.379482
 2958, 513.001, 0.810589, 0.000776334, 31.0533, 0.382892
 2964, 514.001, 0.805879, 0.000793618, 31.7447, 0.38632
 2970, 515.001, 0.801065, 0.000811052, 32.4421, 0.389763
 2976, 516.001, 0.796146, 0.000828624, 33.145, 0.393217
 2982, 517.001, 0.791121, 0.000846321, 33.8528, 0.39668
 2988, 518.001, 0.785989, 0.00086413, 34.5652, 0.400148
 2994, 519.001, 0.780751, 0.000882038, 35.2815, 0.403616
 3000, 520.001, 0.775405, 0.000900029, 36.0012, 0.407082
 3006, 521.001, 0.76995, 0.000918088, 36.7235, 0.41054
 3012, 522.001, 0.764387, 0.000936197, 37.4479, 0.413986
 3018, 523.001, 0.758716, 0.000954341, 38.1736, 0.417416
 3024, 524.001, 0.752935, 0.0009725, 38.9, 0.420825
 3030, 525.001, 0.747045, 0.000990654, 39.6262, 0.424207
 3036, 526.001, 0.741047, 0.00100878, 40.3514, 0.427558
 3042, 527.001, 0.73494, 0.00102687, 41.0748, 0.430872
 3048, 528.001, 0.728724, 0.00104489, 41.7955, 0.434143
 3054, 529.001, 0.722401, 0.00106282, 42.5126, 0.437366
 3060, 530.001, 0.715971, 0.00108063, 43.2252, 0.440534
 3066, 531.001, 0.709434, 0.0010983, 43.9321, 0.443642
 3072, 532.001, 0.702791, 0.00111581, 44.6325, 0.446681
 3078, 533.001, 0.696044, 0.00113313, 45.3253, 0.449647
 3084, 534.001, 0.689194, 0.00115023, 46.0093, 0.452532
 3090, 535.001, 0.682242, 0.00116709, 46.6834, 0.455328
 3096, 536.001, 0.675189, 0.00118366, 47.3466, 0.45803
 3102, 537.001, 0.668038, 0.00119994, 47.9974, 0.460628
 3108, 538.001, 0.66079, 0.00121587, 48.6349, 0.463117
 3114, 539.001, 0.653448, 0.00123144, 49.2576, 0.465487
 3120, 540.001, 0.646014, 0.00124661, 49.8644, 0.467732
 3126, 541.001, 0.63849, 0.00126135, 50.454, 0.469844
 3132, 542.001, 0.630878, 0.00127562, 51.0249, 0.471814
 3138, 543.001, 0.623183, 0.0012894, 51.5759, 0.473634
 3144, 544.001, 0.615407, 0.00130264, 52.1057, 0.475297
 3150, 545.001, 0.607552, 0.00131532, 52.6129, 0.476794
 3156, 546.001, 0.599624, 0.0013274, 53.096, 0.478117
 3162, 547.001, 0.591625, 0.00133884, 53.5538, 0.479258
 3168, 548.001, 0.583559, 0.00134962, 53.9848, 0.480208
 3174, 549.001, 0.575431, 0.00135969, 54.3878, 0.480961
 3180, 550.001, 0.567244, 0.00136903, 54.7612, 0.481507
 3186, 551.001, 0.559004, 0.0013776, 55.1038, 0.48184
 3192, 552.001, 0.550714, 0.00138536, 55.4143, 0.481951
 3198, 553.001, 0.542381, 0.00139228, 55.6913, 0.481833
 3204, 554.001, 0.534009, 0.00139834, 55.9335, 0.481479
 3210, 555.001, 0.525603, 0.00140349, 56.1397, 0.480882
 3216, 556.001, 0.517169, 0.00140772, 56.3087, 0.480036
 3222, 557.001, 0.508712, 0.00141098, 56.4394, 0.478933
 3228, 558.001, 0.500239, 0.00141326, 56.5305, 0.477569
 3234, 559.001, 0.491755, 0.00141453, 56.5811, 0.475937
 3240, 560.001, 0.483266, 0.00141475, 56.5902, 0.474033
 3246, 561.001, 0.47478, 0.00141392, 56.5568, 0.471852
 3252, 562.001, 0.466302, 0.001412, 56.4801, 0.46939
 3258, 563.001, 0.457838, 0.00140899, 56.3594, 0.466644
 3264, 564.001, 0.449396, 0.00140485, 56.194, 0.46361
 3270, 565.001, 0.440982, 0.00139958, 55.9832, 0.460287
 3276, 566.001, 0.432603, 0.00139317, 55.7267, 0.456672
 3282, 567.001, 0.424267, 0.0013856, 55.424, 0.452766
 3288, 568.001, 0.415979, 0.00137687, 55.0749, 0.448568
 3294, 569.001, 0.407746, 0.00136698, 54.6794, 0.444079
 3300, 570.001, 0.399577, 0.00135593, 54.2372, 0.439301
 3306, 571.001, 0.391478, 0.00134372, 53.7487, 0.434235
 3312, 572.001, 0.383455, 0.00133035, 53.214, 0.428885
 3318, 573.001, 0.375516, 0.00131584, 52.6335, 0.423255
 3324, 574.001, 0.367667, 0.0013002, 52.0078, 0.417351
 3330, 575.001, 0.359916, 0.00128344, 51.3375, 0.411178
 3336, 576.001, 0.352268, 0.00126559, 50.6235, 0.404743
 3342, 577.001, 0.344731, 0.00124667, 49.8666, 0.398054
 3348, 578.001, 0.337311, 0.0012267, 49.0681, 0.391119
 3354, 579.001, 0.330013, 0.00120573, 48.2292, 0.383948
 3360, 580.001, 0.322844, 0.00118378, 47.3512, 0.376552
 3366, 581.001, 0.31581, 0.00116089, 46.4358, 0.368942
 3372, 582.001, 0.308915, 0.00113711, 45.4845, 0.361131
 3378, 583.001, 0.302166, 0.00111248, 44.4993, 0.353131
 3384, 584.001, 0.295568, 0.00108705, 43.4821, 0.344957
 3390, 585.001, 0.289124, 0.00106087, 42.435, 0.336622
 3396, 586.001, 0.282839, 0.001034, 41.3601, 0.328143
 3402, 587.001, 0.276717, 0.0010065, 40.2599, 0.319536
 3408, 588.001, 0.270762, 0.000978415, 39.1366, 0.310817
 3414, 589.001, 0.264977, 0.000949821, 37.9929, 0.302003
 3420, 590.001, 0.259365, 0.000920781, 36.8313, 0.293113
 3426, 591.001, 0.253929, 0.000891361, 35.6545, 0.284164
 3432, 592.001, 0.24867, 0.00086163, 34.4652, 0.275174
 3438, 593.001, 0.24359, 0.000831656, 33.2663, 0.266162
 3444, 594.001, 0.238691, 0.000801512, 32.0605, 0.257147
 3450, 595.001, 0.233973, 0.000771266, 30.8507, 0.248147
 3456, 596.001, 0.229436, 0.000740992, 29.6397, 0.239182
 3462, 597.001, 0.225081, 0.00071076, 28.4304, 0.23027
 3468, 598.001, 0.220907, 0.000680641, 27.2256, 0.221429
 3474, 599.001, 0.216913, 0.000650703, 26.0281, 0.212677
 3480, 600.001, 0.213098, 0.000621017, 24.8407, 0.204032
 3486, 601.001, 0.209461, 0.000591648, 23.6659, 0.195511
 3492, 602.001, 0.205998, 0.000562661, 22.5064, 0.18713
 3498, 603.001, 0.202708, 0.000534118, 21.3647, 0.178905
 3504, 604.001, 0.199588, 0.00050608, 20.2432, 0.170851
 3510, 605.001, 0.196634, 0.000478603, 19.1441, 0.162983
 3516, 606.001, 0.193844, 0.000451739, 18.0696, 0.155312
 3522, 607.001, 0.191212, 0.000425539, 17.0216, 0.147852
 3528, 608.001, 0.188736, 0.000400049, 16.002, 0.140613
 3534, 609.001, 0.186411, 0.00037531, 15.0124, 0.133606
 3540, 610.001, 0.184231, 0.00035136, 14.0544, 0.126838
 3546, 611.001, 0.182193, 0.000328231, 13.1292, 0.120318
 3552, 612.001, 0.180291, 0.000305953, 12.2381, 0.114052
 3558, 613.001, 0.17852, 0.000284548, 11.3819, 0.108045
 3564, 614.001, 0.176875, 0.000264037, 10.5615, 0.1023
 3570, 615.001, 0.17535, 0.000244433, 9.77733, 0.0968204
 3576, 616.001, 0.17394, 0.000225747, 9.02989, 0.0916073
 3582, 617.001, 0.172639, 0.000207984, 8.31936, 0.0866609
 3588, 618.001, 0.171442, 0.000191144, 7.64576, 0.08198
 3594, 619.001, 0.170344, 0.000175224, 7.00895, 0.0775623
 3600, 620.001, 0.169338, 0.000160216, 6.40863, 0.0734046
 3606, 621.001, 0.16842, 0.000146108, 5.84432, 0.0695025
 3612, 622.001, 0.167583, 0.000132885, 5.31541, 0.065851
 3618, 623.001, 0.166823, 0.000120528, 4.82114, 0.0624436
 3624, 624.001, 0.166135, 0.000109016, 4.36063, 0.0592733
 3630, 625.001, 0.165514, 9.83218e-05, 3.93287, 0.0563328
 3636, 626.001, 0.164954, 8.84194e-05, 3.53678, 0.0536136
 3642, 627.001, 0.164451, 7.92788e-05, 3.17115, 0.0511067
 3648, 628.001, 0.164001, 7.08684e-05, 2.83473, 0.0488031
 3654, 629.001, 0.163599, 6.3155e-05, 2.5262, 0.0466928
 3660, 630.001, 0.163242, 5.61043e-05, 2.24417, 0.0447662
 3666, 631.001, 0.162925, 4.9681e-05, 1.98724, 0.043013
 3672, 632.001, 0.162645, 4.38493e-05, 1.75397, 0.041423
 3678, 633.001, 0.162398, 3.85731e-05, 1.54292, 0.039986
 3684, 634.001, 0.162181, 3.38165e-05, 1.35266, 0.0386919
 3690, 635.001, 0.161991, 2.95437e-05, 1.18175, 0.0375305
 3696, 636.001, 0.161825, 2.57196e-05, 1.02878, 0.0364922
 3702, 637.001, 0.161682, 2.23097e-05, 0.89239, 0.0355671
 3708, 638.001, 0.161557, 1.92809e-05, 0.771236, 0.0347462
 3714, 639.001, 0.161449, 1.66009e-05, 0.664035, 0.0340204
 3720, 640.001, 0.161357, 1.42388e-05, 0.569551, 0.0333813
 3726, 641.001, 0.161278, 1.21652e-05, 0.48661, 0.0328208
 3732, 642.001, 0.161211, 1.03524e-05, 0.414097, 0.032331
 3738, 643.001, 0.161153, 8.77412e-06, 0.350965, 0.0319051
 3744, 644.001, 0.161105, 7.40578e-06, 0.296231, 0.0315359
 3750, 645.001, 0.161064, 6.22456e-06, 0.248982, 0.0312176
 3756, 646.001, 0.16103, 5.20934e-06, 0.208373, 0.0309443
 3762, 647.001, 0.161001, 4.34066e-06, 0.173626, 0.0307105
 3768, 648.001, 0.160978, 3.60075e-06, 0.14403, 0.0305115
 3774, 649.001, 0.160958, 2.97342e-06, 0.118937, 0.0303429
 3780, 650.001, 0.160942, 2.44404e-06, 0.0977615, 0.0302007
 3786, 651.001, 0.160928, 1.99945e-06, 0.0799778, 0.0300813
 3792, 652.001, 0.160918, 1.62788e-06, 0.0651152, 0.0299816
 3798, 653.001, 0.160909, 1.31888e-06, 0.0527553, 0.0298988
 3804, 654.001, 0.160902, 1.06321e-06, 0.0425286, 0.0298302
 3810, 655.001, 0.160896, 8.52757e-07, 0.0341103, 0.029774
 3816, 656.001, 0.160891, 6.80421e-07, 0.0272169, 0.0297278
 3822, 657.001, 0.160888, 5.40053e-07, 0.0216021, 0.0296903
 3828, 658.001, 0.160885, 4.2634e-07, 0.0170536, 0.0296599
 3834, 659.001, 0.160883, 3.34731e-07, 0.0133892, 0.0296354
 3840, 660.001, 0.160881, 2.61341e-07, 0.0104537, 0.0296158
 3846, 661.001, 0.160879, 2.02885e-07, 0.00811539, 0.0296002
 3852, 662.001, 0.160878, 1.56593e-07, 0.00626373, 0.0295879
 3858, 663.001, 0.160878, 1.20152e-07, 0.00480609, 0.0295781
 3864, 664.001, 0.160877, 9.16385e-08, 0.00366554, 0.0295705
 3870, 665.001, 0.160876, 6.94646e-08, 0.00277859, 0.0295646
 3876, 666.001, 0.160876, 5.23287e-08, 0.00209315, 0.0295601
 3882, 667.001, 0.160876, 3.91702e-08, 0.00156681, 0.0295566
 3888, 668.001, 0.160876, 2.91313e-08, 0.00116525, 0.0295538
 3894, 669.001, 0.160875, 2.1523e-08, 0.000860919, 0.0295518
 3900, 670.001, 0.160875, 1.57953e-08, 0.000631814, 0.0295503
 3906, 671.001, 0.160875, 1.1513e-08, 0.000460519, 0.0295492
 3912, 672.001, 0.160875, 8.33341e-09, 0.000333336, 0.0295483
 3918, 673.001, 0.160875, 5.98936e-09, 0.000239574, 0.0295476
 3924, 674.001, 0.160875, 4.27369e-09, 0.000170948, 0.0295473
 3930, 675.001, 0.160875, 3.02716e-09, 0.000121086, 0.0295469
 3936, 676.001, 0.160875, 2.12823e-09, 8.51293e-05, 0.0295467
 3942, 677.001, 0.160875, 1.48489e-09, 5.93957e-05, 0.0295464
 3948, 678.001, 0.160875, 1.02802e-09, 4.1121e-05, 0.0295464
 3954, 679.001, 0.160875, 7.06129e-10, 2.82452e-05, 0.0295463
 3960, 680.001, 0.160875, 4.81144e-10, 1.92458e-05, 0.0295462
 3966, 681.001, 0.160875, 3.25172e-10, 1.30069e-05, 0.0295462
 3972, 682.001, 0.160875, 2.1794e-10, 8.71759e-06, 0.0295462
 3978, 683.001, 0.160875, 1.44837e-10, 5.79347e-06, 0.0295461
 3984, 684.001, 0.160875, 9.54279e-11, 3.81712e-06, 0.0295462
 3990, 685.001, 0.160875, 6.23245e-11, 2.49298e-06, 0.0295462
 3996, 686.001, 0.160875, 4.03425e-11, 1.6137e-06, 0.0295462
 4002, 687.001, 0.160875, 2.58772e-11, 1.03509e-06, 0.0295461
 4008, 688.001, 0.160875, 1.64457e-11, 6.57828e-07, 0.0295461
 4014, 689.001, 0.160875, 1.03538e-11, 4.1415e-07, 0.0295462
 4020, 690.001, 0.160875, 6.45627e-12, 2.58251e-07, 0.0295462
 4026, 691.001, 0.160875, 3.98686e-12, 1.59474e-07, 0.0295462
 4032, 692.001, 0.160875, 2.43765e-12, 9.75058e-08, 0.0295461
 4038, 693.001, 0.160875, 1.47545e-12, 5.90182e-08, 0.0295461
 4044, 694.001, 0.160875, 8.83935e-13, 3.53574e-08, 0.0295461
 4050, 695.001, 0.160875, 5.24053e-13, 2.09621e-08, 0.0295461
 4056, 696.001, 0.160875, 3.07407e-13, 1.22963e-08, 0.0295461
 4062, 697.001, 0.160875, 1.78383e-13, 7.13532e-09, 0.0295461
 4068, 698.001, 0.160875, 1.0238e-13, 4.09519e-09, 0.0295462
 4074, 699.001, 0.160875, 5.81051e-14, 2.3242e-09, 0.0295461
 4080, 700.001, 0.160875, 3.26038e-14, 1.30415e-09, 0.0295462
 4086, 701.001, 0.160875, 1.80839e-14, 7.23355e-10, 0.0295461
 4092, 702.001, 0.160875, 9.91283e-15, 3.96513e-10, 0.0295461
 4098, 703.001, 0.160875, 5.36908e-15, 2.14763e-10, 0.0295461
 4104, 704.001, 0.160875, 2.87282e-15, 1.14913e-10, 0.0295461
 4110, 705.001, 0.160875, 1.51821e-15, 6.07286e-11, 0.0295461
 4116, 706.001, 0.160875, 7.92286e-16, 3.16915e-11, 0.0295462
 4122, 707.001, 0.160875, 4.08191e-16, 1.63276e-11, 0.0295462
 4128, 708.001, 0.160875, 2.07578e-16, 8.30311e-12, 0.0295461
 4134, 709.001, 0.160875, 1.04169e-16, 4.16678e-12, 0.0295461
 4140, 710.001, 0.160875, 5.15755e-17, 2.06302e-12, 0.0295461
 4146, 711.001, 0.160875, 2.51879e-17, 1.00752e-12, 0.0295461
 4152, 712.001, 0.160875, 1.21307e-17, 4.85229e-13, 0.0295461
 4158, 713.001, 0.160875, 5.76004e-18, 2.30401e-13, 0.0295462
 4164, 714.001, 0.160875, 2.6959e-18, 1.07836e-13, 0.0295462
 4170, 715.001, 0.160875, 1.24342e-18, 4.9737e-14, 0.029546
 4176, 716.001, 0.160875, 5.65021e-19, 2.26008e-14, 0.0295461
 4182, 717.001, 0.160875, 2.5289e-19, 1.01156e-14, 0.0295461
 4188, 718.001, 0.160875, 1.11458e-19, 4.45834e-15, 0.0295462
 4194, 719.001, 0.160875, 4.83611e-20, 1.93444e-15, 0.0295461
 4200, 720.001, 0.160875, 2.06524e-20, 8.26094e-16, 0.0295461
 4206, 721.001, 0.160875, 8.67799e-21, 3.4712e-16, 0.0295461
 4212, 722.001, 0.160875, 3.58698e-21, 1.43479e-16, 0.0295461
 4218, 723.001, 0.160875, 1.45808e-21, 5.83233e-17, 0.0295461
 4224, 724.001, 0.160875, 5.82719e-22, 2.33088e-17, 0.0295461
 4230, 725.001, 0.160875, 2.28897e-22, 9.15587e-18, 0.0295461
 4236, 726.001, 0.160875, 8.83489e-23, 3.53395e-18, 0.0295462
 4242, 727.001, 0.160875, 3.3498e-23, 1.33992e-18, 0.0295461
 4248, 728.001, 0.160875, 1.24729e-23, 4.98917e-19, 0.0295462
 4254, 729.001, 0.160875, 4.55954e-24, 1.82381e-19, 0.0295462
 4260, 730.001, 0.160875, 1.63586e-24, 6.54345e-20, 0.0295461
 4266, 731.001, 0.160875, 5.75858e-25, 2.30343e-20, 0.0295461
 4272, 732.001, 0.160875, 1.98835e-25, 7.9534e-21, 0.0295462
 4278, 733.001, 0.160875, 6.732e-26, 2.6928e-21, 0.0295461
 4284, 734.001, 0.160875, 2.23426e-26, 8.93703e-22, 0.0295462
 4290, 735.001, 0.160875, 7.26642e-27, 2.90657e-22, 0.0295461
 4296, 736.001, 0.160875, 2.31507e-27, 9.2603e-23, 0.0295461
 4302, 737.001, 0.160875, 7.22311e-28, 2.88924e-23, 0.0295461
 4308, 738.001, 0.160875, 2.20624e-28, 8.82497e-24, 0.0295462
 4314, 739.001, 0.160875, 6.59486e-29, 2.63795e-24, 0.0295461
 4320, 740.001, 0.160875, 1.92856e-29, 7.71423e-25, 0.0295461
 4326, 741.001, 0.160875, 5.51548e-30, 2.20619e-25, 0.0295461
 4332, 742.001, 0.160875, 1.54207e-30, 6.16828e-26, 0.0295461
 4338, 743.001, 0.160875, 4.21348e-31, 1.68539e-26, 0.0295461
 4344, 744.001, 0.160875, 1.1247e-31, 4.4988e-27, 0.0295462
 4350, 745.001, 0.160875, 2.93178e-32, 1.17271e-27, 0.0295461
 4356, 746.001, 0.160875, 7.46042e-33, 2.98417e-28, 0.0295461
 4362, 747.001, 0.160875, 1.85255e-33, 7.4102e-29, 0.0295463
 4368, 748.001, 0.160875, 4.4873e-34, 1.79492e-29, 0.0295461
 4374, 749.001, 0.160875, 1.05984e-34, 4.23936e-30, 0.0295461
 4380, 750.001, 0.160875, 2.43986e-35, 9.75943e-31, 0.0295461
 4386, 751.001, 0.160875, 5.47251e-36, 2.189e-31, 0.0295461
 4392, 752.001, 0.160875, 1.19545e-36, 4.78178e-32, 0.029546
 4398, 753.001, 0.160875, 2.54225e-37, 1.0169e-32, 0.0295461
 4404, 754.001, 0.160875, 5.26104e-38, 2.10441e-33, 0.0295462
 4410, 755.001, 0.160875, 0.0000000E+000, 4.23611e-34, 0.029546
 4416, 756.001, 0.160875, 0.0000000E+000, 8.29089e-35, 0.0295463
 4422, 757.001, 0.160875, 0.0000000E+000, 1.57705e-35, 0.029546
 4428, 758.001, 0.160875, 0.0000000E+000, 2.91415e-36, 0.0295462
 4434, 759.001, 0.160875, 0.0000000E+000, 5.22887e-37, 0.0295462
 4440, 760.001, 0.160875, 0.0000000E+000, 9.10623e-38, 0.0295461
 4446, 761.001, 0.160875, 0.0000000E+000, 1.53853e-38, 0.0295461
 4452, 762.001, 0.160875, 0.0000000E+000, 0.0000000E+000, 0.0295461
 4458, 763.001, 0.160875, 0.0000000E+000, 0.0000000E+000, 0.0295463
 4464, 764.001, 0.160875, 0.0000000E+000, 0.0000000E+000, 0.0295462
 4470, 765.001, 0.160875, 0.0000000E+000, 0.0000000E+000, 0.0295462
 4476, 766.001, 0.160875, 0.0000000E+000, 0.0000000E+000, 0.0295462
 4482, 767.001, 0.160875, 0.0000000E+000, 0.0000000E+000, 0.0295462
 4488, 768.001, 0.160875, 0.0000000E+000, 0.0000000E+000, 0.0295461
 4494, 769.001, 0.160875, 0.0000000E+000, 0.0000000E+000, 0.0295463
 4500, 770.001, 0.160875, 0.0000000E+000, 0.0000000E+000, 0.0295462
 4506, 771.001, 0.160875, 0.0000000E+000, 0.0000000E+000, 0.0295462
 4512, 772.001, 0.160875, 0.0000000E+000, 0.0000000E+000, 0.0295461
 4518, 773.001, 0.160875, 0.0000000E+000, 0.0000000E+000, 0.029546
 4524, 774.001, 0.160875, 0.0000000E+000, 0.0000000E+000, 0.0295461
 4530, 775.001, 0.160875, 0.0000000E+000, 0.0000000E+000, 0.029546
 4536, 776.001, 0.160875, 0.0000000E+000, 0.0000000E+000, 0.0295461
 4542, 777.001, 0.160875, 0.0000000E+000, 0.0000000E+000, 0.0295462
 4548, 778.001, 0.160875, 0.0000000E+000, 0.0000000E+000, 0.029546
 4554, 779.001, 0.160875, 0.0000000E+000, 0.0000000E+000, 0.0295461
 4560, 780.001, 0.160875, 0.0000000E+000, 0.0000000E+000, 0.0295461
 4566, 781.001, 0.160875, 0.0000000E+000, 0.0000000E+000, 0.0295462
 4572, 782.001, 0.160875, 0.0000000E+000, 0.0000000E+000, 0.0295462
 4578, 783.001, 0.160875, 0.0000000E+000, 0.0000000E+000, 0.0295461
 4584, 784.001, 0.160875, 0.0000000E+000, 0.0000000E+000, 0.0295462
 4590, 785.001, 0.160875, 0.0000000E+000, 0.0000000E+000, 0.0295463
 4596, 786.001, 0.160875, 0.0000000E+000, 0.0000000E+000, 0.0295461
 4602, 787.001, 0.160875, 0.0000000E+000, 0.0000000E+000, 0.0295461
 4608, 788.001, 0.160875, 0.0000000E+000, 0.0000000E+000, 0.0295461
 4614, 789.001, 0.160875, 0.0000000E+000, 0.0000000E+000, 0.0295461
 4620, 790.001, 0.160875, 0.0000000E+000, 0.0000000E+000, 0.0295463
 4626, 791.001, 0.160875, 0.0000000E+000, 0.0000000E+000, 0.0295461
 4632, 792.001, 0.160875, 0.0000000E+000, 0.0000000E+000, 0.029546
 4638, 793.001, 0.160875, 0.0000000E+000, 0.0000000E+000, 0.0295462
 4644, 794.001, 0.160875, 0.0000000E+000, 0.0000000E+000, 0.0295462
 4650, 795.001, 0.160875, 0.0000000E+000, 0.0000000E+000, 0.029546
 4656, 796.001, 0.160875, 0.0000000E+000, 0.0000000E+000, 0.0295462
 4662, 797.001, 0.160875, 0.0000000E+000, 0.0000000E+000, 0.029546
 4668, 798.001, 0.160875, 0.0000000E+000, 0.0000000E+000, 0.0295461
 4674, 799.001, 0.160875, 0.0000000E+000, 0.0000000E+000, 0.0295462
 4680, 800.001, 0.160875, 0.0000000E+000, 0.0000000E+000, 0.0295462