File: examples/Birch_TGA_Example/Work/Cone_4cd8bha9/birch_tga_1step_20_tga.csv
s,C,g/g,1/s,W/g,W/g
Time,Temp,Mass,MLR,MCC,DSC
 3, 21.0014, 0.999999, 2.18432e-07, 6.99206e-16, 0.459601
 6, 22.0014, 0.999999, 2.50874e-07, 8.61572e-16, 0.459673
 9, 23.0014, 0.999998, 2.87863e-07, 1.06014e-15, 0.459756
 12, 24.0014, 0.999997, 3.29998e-07, 1.30266e-15, 0.45985
 15, 25.0014, 0.999996, 3.77948e-07, 1.59845e-15, 0.459957
 18, 26.0014, 0.999995, 4.32468e-07, 1.95872e-15, 0.460078
 21, 27.0014, 0.999993, 4.94401e-07, 2.39694e-15, 0.460217
 24, 28.0014, 0.999992, 5.64693e-07, 2.92927e-15, 0.460373
 27, 29.0014, 0.99999, 6.44398e-07, 3.57507e-15, 0.460551
 30, 30.0014, 0.999988, 7.34698e-07, 4.35752e-15, 0.460753
 33, 31.0014, 0.999985, 8.36909e-07, 5.30432e-15, 0.460981
 36, 32.0014, 0.999983, 9.52499e-07, 6.44851e-15, 0.461239
 39, 33.0014, 0.99998, 1.08311e-06, 7.82953e-15, 0.46153
 42, 34.0014, 0.999976, 1.23055e-06, 9.49429e-15, 0.461859
 45, 35.0014, 0.999972, 1.39685e-06, 1.14986e-14, 0.46223
 48, 36.0014, 0.999968, 1.58425e-06, 1.39089e-14, 0.462648
 51, 37.0014, 0.999963, 1.79525e-06, 1.68037e-14, 0.463118
 54, 38.0014, 0.999957, 2.0326e-06, 2.02763e-14, 0.463647
 57, 39.0014, 0.999951, 2.29936e-06, 2.44372e-14, 0.464242
 60, 40.0014, 0.999943, 2.59888e-06, 2.94168e-14, 0.464909
 63, 41.0014, 0.999935, 2.9349e-06, 3.53694e-14, 0.465658
 66, 42.0014, 0.999926, 3.31151e-06, 4.24767e-14, 0.466497
 69, 43.0014, 0.999915, 3.73321e-06, 5.09532e-14, 0.467437
 72, 44.0014, 0.999903, 4.20496e-06, 6.10512e-14, 0.468488
 75, 45.0014, 0.99989, 4.73217e-06, 7.30672e-14, 0.469663
 78, 46.0014, 0.999875, 5.32078e-06, 8.73499e-14, 0.470974
 81, 47.0014, 0.999858, 5.97727e-06, 1.04308e-13, 0.472436
 84, 48.0014, 0.999839, 6.70869e-06, 1.24421e-13, 0.474064
 87, 49.0014, 0.999817, 7.52271e-06, 1.48249e-13, 0.475877
 90, 50.0014, 0.999793, 8.42766e-06, 1.7645e-13, 0.477891
 93, 51.0014, 0.999767, 9.43249e-06, 2.0979e-13, 0.480128
 96, 52.0014, 0.999737, 1.05469e-05, 2.49163e-13, 0.482608
 99, 53.0014, 0.999703, 1.17812e-05, 2.95615e-13, 0.485355
 102, 54.0014, 0.999666, 1.31466e-05, 3.5036e-13, 0.488393
 105, 55.0014, 0.999624, 1.46548e-05, 4.14813e-13, 0.491747
 108, 56.0014, 0.999578, 1.63183e-05, 4.9062e-13, 0.495447
 111, 57.0014, 0.999526, 1.81502e-05, 5.7969e-13, 0.499521
 114, 58.0014, 0.999469, 2.01641e-05, 6.84242e-13, 0.503998
 117, 59.0014, 0.999405, 2.23743e-05, 8.06844e-13, 0.508911
 120, 60.0014, 0.999334, 2.47951e-05, 9.50472e-13, 0.51429
 123, 61.0014, 0.999256, 2.74414e-05, 1.11857e-12, 0.520169
 126, 62.0014, 0.999169, 3.03275e-05, 1.31512e-12, 0.52658
 129, 63.0014, 0.999074, 3.34679e-05, 1.54472e-12, 0.533553
 132, 64.0014, 0.998968, 3.68759e-05, 1.81267e-12, 0.541118
 135, 65.0014, 0.998852, 4.05641e-05, 2.12509e-12, 0.549302
 138, 66.0014, 0.998725, 4.45431e-05, 2.48902e-12, 0.558128
 141, 67.0014, 0.998585, 4.88213e-05, 2.91257e-12, 0.567614
 144, 68.0014, 0.998431, 5.34044e-05, 3.40505e-12, 0.577771
 147, 69.0013, 0.998264, 5.82939e-05, 3.97717e-12, 0.588602
 150, 70.0013, 0.998081, 6.34867e-05, 4.64121e-12, 0.600098
 153, 71.0013, 0.997882, 6.89739e-05, 5.41127e-12, 0.612238
 156, 72.0013, 0.997667, 7.47397e-05, 6.30348e-12, 0.624984
 159, 73.0013, 0.997434, 8.076e-05, 7.33633e-12, 0.638281
 162, 74.0013, 0.997182, 8.70013e-05, 8.53096e-12, 0.652053
 165, 75.0013, 0.996911, 9.34192e-05, 9.91152e-12, 0.666197
 168, 76.0013, 0.996621, 9.99575e-05, 1.15056e-11, 0.680587
 171, 77.0013, 0.996312, 0.000106547, 1.33447e-11, 0.695064
 174, 78.0013, 0.995982, 0.000113103, 1.54647e-11, 0.709438
 177, 79.0013, 0.995633, 0.000119529, 1.79065e-11, 0.72349
 180, 80.0013, 0.995265, 0.000125711, 2.07166e-11, 0.736963
 183, 81.0013, 0.994879, 0.000131523, 2.3948e-11, 0.749574
 186, 82.0012, 0.994476, 0.000136825, 2.76609e-11, 0.761007
 189, 83.0012, 0.994059, 0.000141469, 3.19235e-11, 0.770929
 192, 84.0012, 0.993628, 0.000145297, 3.68135e-11, 0.778987
 195, 85.0012, 0.993188, 0.000148153, 4.24187e-11, 0.784831
 198, 86.0012, 0.992741, 0.000149884, 4.88389e-11, 0.788117
 201, 87.0012, 0.99229, 0.000150348, 5.61868e-11, 0.788532
 204, 88.0012, 0.99184, 0.000149424, 6.459e-11, 0.785809
 207, 89.0012, 0.991395, 0.000147023, 7.41929e-11, 0.779748
 210, 90.0012, 0.990959, 0.000143092, 8.51586e-11, 0.770241
 213, 91.0013, 0.990538, 0.00013763, 9.7671e-11, 0.757287
 216, 92.0013, 0.990135, 0.000130688, 1.11938e-10, 0.741012
 219, 93.0013, 0.989755, 0.000122381, 1.28193e-10, 0.721679
 222, 94.0013, 0.989402, 0.000112885, 1.467e-10, 0.699693
 225, 95.0013, 0.989079, 0.000102434, 1.67757e-10, 0.67559
 228, 96.0013, 0.988788, 9.13137e-05, 1.91696e-10, 0.65002
 231, 97.0013, 0.988531, 7.98486e-05, 2.18894e-10, 0.623717
 234, 98.0013, 0.988309, 6.8381e-05, 2.49772e-10, 0.597458
 237, 99.0014, 0.988121, 5.7251e-05, 2.84804e-10, 0.572012
 240, 100.001, 0.987965, 4.67726e-05, 3.2452e-10, 0.548086
 243, 101.001, 0.98784, 3.72118e-05, 3.69518e-10, 0.526279
 246, 102.001, 0.987741, 2.87671e-05, 4.20463e-10, 0.507037
 249, 103.001, 0.987666, 2.15582e-05, 4.78103e-10, 0.490623
 252, 104.001, 0.98761, 1.56215e-05, 5.43275e-10, 0.477116
 255, 105.001, 0.987571, 1.09153e-05, 6.16914e-10, 0.466416
 258, 106.001, 0.987544, 7.33278e-06, 7.00064e-10, 0.458275
 261, 107.001, 0.987526, 4.72103e-06, 7.93893e-10, 0.452343
 264, 108.001, 0.987515, 2.90306e-06, 8.99703e-10, 0.448216
 267, 109.001, 0.987508, 1.69873e-06, 1.01895e-09, 0.445483
 270, 110.001, 0.987504, 9.42158e-07, 1.15325e-09, 0.443767
 273, 111.001, 0.987502, 4.9318e-07, 1.30441e-09, 0.442748
 276, 112.001, 0.987501, 2.4254e-07, 1.47444e-09, 0.44218
 279, 113.001, 0.9875, 1.11513e-07, 1.66558e-09, 0.441883
 282, 114.001, 0.9875, 4.76802e-08, 1.88031e-09, 0.441739
 285, 115.001, 0.9875, 1.88525e-08, 2.1214e-09, 0.441674
 288, 116.001, 0.9875, 6.85139e-09, 2.39191e-09, 0.441646
 291, 117.001, 0.9875, 2.27377e-09, 2.69527e-09, 0.441636
 294, 118.001, 0.9875, 6.84323e-10, 3.03524e-09, 0.441632
 297, 119.001, 0.9875, 1.85422e-10, 3.41602e-09, 0.441631
 300, 120.001, 0.9875, 4.4919e-11, 3.84227e-09, 0.441631
 303, 121.001, 0.9875, 9.70419e-12, 4.31912e-09, 0.441631
 306, 122.001, 0.9875, 1.92336e-12, 4.85228e-09, 0.441631
 309, 123.001, 0.9875, 4.30123e-13, 5.44806e-09, 0.441631
 312, 124.001, 0.9875, 1.94037e-13, 6.11341e-09, 0.441631
 315, 125.001, 0.9875, 1.7631e-13, 6.85606e-09, 0.441631
 318, 126.001, 0.9875, 1.92604e-13, 7.6845e-09, 0.441631
 321, 127.001, 0.9875, 2.15244e-13, 8.60814e-09, 0.441631
 324, 128.001, 0.9875, 2.40936e-13, 9.63734e-09, 0.441631
 327, 129.001, 0.9875, 2.69589e-13, 1.07835e-08, 0.441631
 330, 130.001, 0.9875, 3.01483e-13, 1.20593e-08, 0.441631
 333, 131.001, 0.9875, 3.36965e-13, 1.34786e-08, 0.441631
 336, 132.001, 0.9875, 3.76416e-13, 1.50566e-08, 0.441631
 339, 133.001, 0.9875, 4.20256e-13, 1.68102e-08, 0.441631
 342, 134.001, 0.9875, 4.68948e-13, 1.87579e-08, 0.441631
 345, 135.001, 0.9875, 5.23001e-13, 2.09201e-08, 0.441631
 348, 136.001, 0.9875, 5.82974e-13, 2.3319e-08, 0.441631
 351, 137.001, 0.9875, 6.49479e-13, 2.59792e-08, 0.441631
 354, 138.001, 0.9875, 7.23192e-13, 2.89277e-08, 0.441631
 357, 139.001, 0.9875, 8.0485e-13, 3.2194e-08, 0.441631
 360, 140.001, 0.9875, 8.95265e-13, 3.58106e-08, 0.441631
 363, 141.001, 0.9875, 9.95326e-13, 3.9813e-08, 0.441631
 366, 142.001, 0.9875, 1.106e-12, 4.42402e-08, 0.441631
 369, 143.001, 0.9875, 1.22837e-12, 4.91347e-08, 0.441631
 372, 144.001, 0.9875, 1.36358e-12, 5.45433e-08, 0.441631
 375, 145.001, 0.9875, 1.51293e-12, 6.05171e-08, 0.441631
 378, 146.001, 0.9875, 1.67779e-12, 6.71118e-08, 0.441631
 381, 147.001, 0.9875, 1.85971e-12, 7.43885e-08, 0.441631
 384, 148.001, 0.9875, 2.06035e-12, 8.24139e-08, 0.441631
 387, 149.001, 0.9875, 2.28152e-12, 9.12609e-08, 0.441631
 390, 150.001, 0.9875, 2.52522e-12, 1.01009e-07, 0.441631
 393, 151.001, 0.9875, 2.79361e-12, 1.11744e-07, 0.441631
 396, 152.001, 0.9875, 3.08906e-12, 1.23562e-07, 0.441631
 399, 153.001, 0.9875, 3.41414e-12, 1.36566e-07, 0.441631
 402, 154.001, 0.9875, 3.77167e-12, 1.50867e-07, 0.441631
 405, 155.001, 0.9875, 4.1647e-12, 1.66588e-07, 0.441631
 408, 156.001, 0.9875, 4.59656e-12, 1.83863e-07, 0.441631
 411, 157.001, 0.9875, 5.07088e-12, 2.02835e-07, 0.441631
 414, 158.001, 0.9875, 5.5916e-12, 2.23664e-07, 0.441631
 417, 159.001, 0.9875, 6.16299e-12, 2.4652e-07, 0.441631
 420, 160.001, 0.9875, 6.78973e-12, 2.71589e-07, 0.441631
 423, 161.001, 0.9875, 7.47686e-12, 2.99074e-07, 0.441631
 426, 162.001, 0.9875, 8.22989e-12, 3.29195e-07, 0.441631
 429, 163.001, 0.9875, 9.05477e-12, 3.62191e-07, 0.441631
 432, 164.001, 0.9875, 9.95797e-12, 3.98319e-07, 0.441631
 435, 165.001, 0.9875, 1.09465e-11, 4.37861e-07, 0.441631
 438, 166.001, 0.9875, 1.2028e-11, 4.81121e-07, 0.441631
 441, 167.001, 0.9875, 1.32107e-11, 5.28428e-07, 0.441631
 444, 168.001, 0.9875, 1.45035e-11, 5.80141e-07, 0.441631
 447, 169.001, 0.9875, 1.59161e-11, 6.36645e-07, 0.441631
 450, 170.001, 0.9875, 1.7459e-11, 6.9836e-07, 0.441631
 453, 171.001, 0.9875, 1.91434e-11, 7.65737e-07, 0.441631
 456, 172.001, 0.9875, 2.09817e-11, 8.39269e-07, 0.441631
 459, 173.001, 0.9875, 2.29871e-11, 9.19483e-07, 0.441631
 462, 174.001, 0.9875, 2.51738e-11, 1.00695e-06, 0.441631
 465, 175.001, 0.9875, 2.75574e-11, 1.1023e-06, 0.441631
 468, 176.001, 0.9875, 3.01545e-11, 1.20618e-06, 0.441631
 471, 177.001, 0.9875, 3.29832e-11, 1.31933e-06, 0.441631
 474, 178.001, 0.9875, 3.60629e-11, 1.44252e-06, 0.441631
 477, 179.001, 0.9875, 3.94146e-11, 1.57658e-06, 0.441631
 480, 180.001, 0.9875, 4.30609e-11, 1.72243e-06, 0.441631
 483, 181.001, 0.9875, 4.70262e-11, 1.88105e-06, 0.441631
 486, 182.001, 0.9875, 5.13367e-11, 2.05347e-06, 0.441631
 489, 183.001, 0.9875, 5.60209e-11, 2.24083e-06, 0.441631
 492, 184.001, 0.9875, 6.11091e-11, 2.44436e-06, 0.441631
 495, 185.001, 0.9875, 6.66341e-11, 2.66536e-06, 0.441631
 498, 186.001, 0.9875, 7.26313e-11, 2.90525e-06, 0.441631
 501, 187.001, 0.9875, 7.91386e-11, 3.16554e-06, 0.441631
 504, 188.001, 0.9875, 8.61968e-11, 3.44787e-06, 0.441631
 507, 189.001, 0.9875, 9.38498e-11, 3.75399e-06, 0.441631
 510, 190.001, 0.9875, 1.02145e-10, 4.08579e-06, 0.441631
 513, 191.001, 0.9875, 1.11132e-10, 4.44529e-06, 0.441631
 516, 192.001, 0.9875, 1.20867e-10, 4.83467e-06, 0.441631
 519, 193.001, 0.9875, 1.31407e-10, 5.25627e-06, 0.441631
 522, 194.001, 0.9875, 1.42815e-10, 5.71258e-06, 0.441631
 525, 195.001, 0.9875, 1.55158e-10, 6.2063e-06, 0.441631
 528, 196.001, 0.9875, 1.68508e-10, 6.74031e-06, 0.441631
 531, 197.001, 0.9875, 1.82942e-10, 7.3177e-06, 0.441631
 534, 198.001, 0.9875, 1.98544e-10, 7.94177e-06, 0.441631
 537, 199.001, 0.9875, 2.15402e-10, 8.61608e-06, 0.441631
 540, 200.001, 0.9875, 2.33611e-10, 9.34443e-06, 0.441631
 543, 201.001, 0.9875, 2.53272e-10, 1.01309e-05, 0.441631
 546, 202.001, 0.9875, 2.74494e-10, 1.09798e-05, 0.441631
 549, 203.001, 0.9875, 2.97394e-10, 1.18958e-05, 0.441631
 552, 204.001, 0.9875, 3.22097e-10, 1.28839e-05, 0.441631
 555, 205.001, 0.9875, 3.48735e-10, 1.39494e-05, 0.441631
 558, 206.001, 0.9875, 3.77451e-10, 1.5098e-05, 0.441631
 561, 207.001, 0.9875, 4.08396e-10, 1.63359e-05, 0.441631
 564, 208.001, 0.9875, 4.41734e-10, 1.76694e-05, 0.441631
 567, 209.001, 0.9875, 4.77638e-10, 1.91055e-05, 0.441631
 570, 210.001, 0.9875, 5.16294e-10, 2.06517e-05, 0.441631
 573, 211.001, 0.9875, 5.57898e-10, 2.23159e-05, 0.441631
 576, 212.001, 0.9875, 6.02662e-10, 2.41065e-05, 0.441631
 579, 213.001, 0.9875, 6.50811e-10, 2.60324e-05, 0.441631
 582, 214.001, 0.9875, 7.02586e-10, 2.81034e-05, 0.441631
 585, 215.001, 0.9875, 7.58241e-10, 3.03296e-05, 0.441631
 588, 216.001, 0.9875, 8.1805e-10, 3.2722e-05, 0.441631
 591, 217.001, 0.9875, 8.82304e-10, 3.52921e-05, 0.441631
 594, 218.001, 0.9875, 9.51311e-10, 3.80524e-05, 0.441631
 597, 219.001, 0.9875, 1.0254e-09, 4.10161e-05, 0.441631
 600, 220.001, 0.9875, 1.10493e-09, 4.4197e-05, 0.441631
 603, 221.001, 0.9875, 1.19026e-09, 4.76103e-05, 0.441631
 606, 222.001, 0.9875, 1.2818e-09, 5.12718e-05, 0.441631
 609, 223.001, 0.9875, 1.37996e-09, 5.51984e-05, 0.441631
 612, 224.001, 0.9875, 1.4852e-09, 5.94081e-05, 0.441631
 615, 225.001, 0.9875, 1.598e-09, 6.392e-05, 0.441631
 618, 226.001, 0.9875, 1.71886e-09, 6.87543e-05, 0.441631
 621, 227.001, 0.9875, 1.84832e-09, 7.39327e-05, 0.441631
 624, 228.001, 0.9875, 1.98695e-09, 7.94781e-05, 0.441631
 627, 229.001, 0.9875, 2.13537e-09, 8.54149e-05, 0.441631
 630, 230.001, 0.9875, 2.29422e-09, 9.17688e-05, 0.441631
 633, 231.001, 0.9875, 2.46418e-09, 9.85673e-05, 0.441632
 636, 232.001, 0.9875, 2.64599e-09, 0.00010584, 0.441632
 639, 233.001, 0.9875, 2.84041e-09, 0.000113616, 0.441632
 642, 234.001, 0.9875, 3.04826e-09, 0.00012193, 0.441632
 645, 235.001, 0.9875, 3.27041e-09, 0.000130817, 0.441632
 648, 236.001, 0.9875, 3.50779e-09, 0.000140312, 0.441632
 651, 237.001, 0.9875, 3.76136e-09, 0.000150454, 0.441632
 654, 238.001, 0.9875, 4.03216e-09, 0.000161286, 0.441632
 657, 239.001, 0.9875, 4.32128e-09, 0.000172851, 0.441632
 660, 240.001, 0.9875, 4.62988e-09, 0.000185195, 0.441632
 663, 241.001, 0.9875, 4.95919e-09, 0.000198368, 0.441632
 666, 242.001, 0.9875, 5.31051e-09, 0.00021242, 0.441632
 669, 243.001, 0.9875, 5.68521e-09, 0.000227408, 0.441632
 672, 244.001, 0.9875, 6.08474e-09, 0.000243389, 0.441632
 675, 245.001, 0.9875, 6.51064e-09, 0.000260426, 0.441632
 678, 246.001, 0.9875, 6.96453e-09, 0.000278581, 0.441633
 681, 247.001, 0.9875, 7.44814e-09, 0.000297926, 0.441633
 684, 248.001, 0.9875, 7.96328e-09, 0.000318531, 0.441633
 687, 249.001, 0.9875, 8.51187e-09, 0.000340475, 0.441633
 690, 250.001, 0.9875, 9.09593e-09, 0.000363837, 0.441633
 693, 251.001, 0.9875, 9.7176e-09, 0.000388704, 0.441633
 696, 252.001, 0.9875, 1.03792e-08, 0.000415166, 0.441633
 699, 253.001, 0.9875, 1.1083e-08, 0.000443319, 0.441634
 702, 254.001, 0.987499, 1.18316e-08, 0.000473263, 0.441634
 705, 255.001, 0.987499, 1.26276e-08, 0.000505104, 0.441634
 708, 256.001, 0.987499, 1.34739e-08, 0.000538955, 0.441634
 711, 257.001, 0.987499, 1.43733e-08, 0.000574934, 0.441634
 714, 258.001, 0.987499, 1.53291e-08, 0.000613165, 0.441635
 717, 259.001, 0.987499, 1.63445e-08, 0.000653781, 0.441635
 720, 260.001, 0.987499, 1.7423e-08, 0.000696919, 0.441635
 723, 261.001, 0.987499, 1.85681e-08, 0.000742726, 0.441635
 726, 262.001, 0.987499, 1.97839e-08, 0.000791355, 0.441636
 729, 263.001, 0.987499, 2.10742e-08, 0.000842969, 0.441636
 732, 264.001, 0.987499, 2.24434e-08, 0.000897738, 0.441636
 735, 265.001, 0.987499, 2.3896e-08, 0.000955842, 0.441637
 738, 266.001, 0.987499, 2.54367e-08, 0.00101747, 0.441637
 741, 267.001, 0.987499, 2.70705e-08, 0.00108282, 0.441637
 744, 268.001, 0.987499, 2.88026e-08, 0.0011521, 0.441638
 747, 269.001, 0.987499, 3.06384e-08, 0.00122554, 0.441638
 750, 270.001, 0.987499, 3.25839e-08, 0.00130336, 0.441639
 753, 271.001, 0.987498, 3.46451e-08, 0.0013858, 0.441639
 756, 272.001, 0.987498, 3.68284e-08, 0.00147314, 0.44164
 759, 273.001, 0.987498, 3.91405e-08, 0.00156562, 0.44164
 762, 274.001, 0.987498, 4.15885e-08, 0.00166354, 0.441641
 765, 275.001, 0.987498, 4.41798e-08, 0.00176719, 0.441641
 768, 276.001, 0.987498, 4.69223e-08, 0.00187689, 0.441642
 771, 277.001, 0.987498, 4.9824e-08, 0.00199296, 0.441643
 774, 278.001, 0.987498, 5.28938e-08, 0.00211575, 0.441644
 777, 279.001, 0.987497, 5.61405e-08, 0.00224562, 0.441644
 780, 280.001, 0.987497, 5.95736e-08, 0.00238294, 0.441645
 783, 281.001, 0.987497, 6.32031e-08, 0.00252813, 0.441646
 786, 282.001, 0.987497, 6.70395e-08, 0.00268158, 0.441647
 789, 283.001, 0.987497, 7.10937e-08, 0.00284375, 0.441648
 792, 284.001, 0.987496, 7.53772e-08, 0.00301509, 0.441649
 795, 285.001, 0.987496, 7.9902e-08, 0.00319608, 0.44165
 798, 286.001, 0.987496, 8.46807e-08, 0.00338723, 0.441651
 801, 287.001, 0.987496, 8.97267e-08, 0.00358907, 0.441652
 804, 288.001, 0.987495, 9.50537e-08, 0.00380215, 0.441654
 807, 289.001, 0.987495, 1.00676e-07, 0.00402705, 0.441655
 810, 290.001, 0.987495, 1.0661e-07, 0.00426439, 0.441656
 813, 291.001, 0.987494, 1.1287e-07, 0.0045148, 0.441658
 816, 292.001, 0.987494, 1.19474e-07, 0.00477895, 0.441659
 819, 293.001, 0.987494, 1.26438e-07, 0.00505753, 0.441661
 822, 294.001, 0.987493, 1.33782e-07, 0.00535129, 0.441663
 825, 295.001, 0.987493, 1.41525e-07, 0.00566098, 0.441665
 828, 296.001, 0.987492, 1.49685e-07, 0.00598742, 0.441667
 831, 297.001, 0.987492, 1.58286e-07, 0.00633143, 0.441669
 834, 298.001, 0.987491, 1.67347e-07, 0.00669389, 0.441671
 837, 299.001, 0.987491, 1.76893e-07, 0.00707573, 0.441673
 840, 300.001, 0.98749, 1.86948e-07, 0.0074779, 0.441675
 843, 301.001, 0.98749, 1.97535e-07, 0.00790141, 0.441678
 846, 302.001, 0.987489, 2.08683e-07, 0.0083473, 0.44168
 849, 303.001, 0.987489, 2.20417e-07, 0.00881668, 0.441683
 852, 304.001, 0.987488, 2.32767e-07, 0.00931068, 0.441686
 855, 305.001, 0.987487, 2.45763e-07, 0.00983051, 0.441689
 858, 306.001, 0.987486, 2.59435e-07, 0.0103774, 0.441692
 861, 307.001, 0.987486, 2.73818e-07, 0.0109527, 0.441696
 864, 308.001, 0.987485, 2.88943e-07, 0.0115577, 0.441699
 867, 309.001, 0.987484, 3.04848e-07, 0.0121939, 0.441703
 870, 310.001, 0.987483, 3.2157e-07, 0.0128628, 0.441707
 873, 311.001, 0.987482, 3.39146e-07, 0.0135658, 0.441711
 876, 312.001, 0.987481, 3.57618e-07, 0.0143047, 0.441716
 879, 313.001, 0.98748, 3.77028e-07, 0.0150811, 0.44172
 882, 314.001, 0.987479, 3.9742e-07, 0.0158968, 0.441725
 885, 315.001, 0.987477, 4.1884e-07, 0.0167536, 0.44173
 888, 316.001, 0.987476, 4.41335e-07, 0.0176534, 0.441735
 891, 317.001, 0.987475, 4.64956e-07, 0.0185983, 0.441741
 894, 318.001, 0.987473, 4.89755e-07, 0.0195902, 0.441747
 897, 319.001, 0.987472, 5.15786e-07, 0.0206315, 0.441753
 900, 320.001, 0.98747, 5.43106e-07, 0.0217242, 0.441759
 903, 321.001, 0.987469, 5.71774e-07, 0.0228709, 0.441766
 906, 322.001, 0.987467, 6.0185e-07, 0.024074, 0.441773
 909, 323.001, 0.987465, 6.334e-07, 0.025336, 0.44178
 912, 324.001, 0.987463, 6.66489e-07, 0.0266596, 0.441788
 915, 325.001, 0.987461, 7.01187e-07, 0.0280475, 0.441796
 918, 326.001, 0.987459, 7.37567e-07, 0.0295027, 0.441805
 921, 327.001, 0.987457, 7.75704e-07, 0.0310281, 0.441814
 924, 328.001, 0.987454, 8.15675e-07, 0.032627, 0.441823
 927, 329.001, 0.987452, 8.57563e-07, 0.0343025, 0.441833
 930, 330.001, 0.987449, 9.01452e-07, 0.0360581, 0.441843
 933, 331.001, 0.987446, 9.4743e-07, 0.0378972, 0.441854
 936, 332.001, 0.987443, 9.9559e-07, 0.0398236, 0.441865
 939, 333.001, 0.98744, 1.04603e-06, 0.041841, 0.441877
 942, 334.001, 0.987437, 1.09884e-06, 0.0439535, 0.441889
 945, 335.001, 0.987434, 1.15413e-06, 0.0461652, 0.441902
 948, 336.001, 0.98743, 1.21201e-06, 0.0484803, 0.441915
 951, 337.001, 0.987426, 1.27258e-06, 0.0509034, 0.441929
 954, 338.001, 0.987422, 1.33597e-06, 0.053439, 0.441944
 957, 339.001, 0.987418, 1.4023e-06, 0.056092, 0.44196
 960, 340.001, 0.987414, 1.47168e-06, 0.0588674, 0.441976
 963, 341.001, 0.98741, 1.54426e-06, 0.0617703, 0.441993
 966, 342.001, 0.987405, 1.62016e-06, 0.0648063, 0.44201
 969, 343.001, 0.9874, 1.69952e-06, 0.0679809, 0.442029
 972, 344.001, 0.987395, 1.7825e-06, 0.0712999, 0.442048
 975, 345.001, 0.987389, 1.86923e-06, 0.0747694, 0.442068
 978, 346.001, 0.987383, 1.95989e-06, 0.0783956, 0.442089
 981, 347.001, 0.987377, 2.05463e-06, 0.0821852, 0.442111
 984, 348.001, 0.987371, 2.15362e-06, 0.0861448, 0.442134
 987, 349.001, 0.987364, 2.25704e-06, 0.0902814, 0.442158
 990, 350.001, 0.987357, 2.36506e-06, 0.0946025, 0.442183
 993, 351.001, 0.98735, 2.47789e-06, 0.0991155, 0.442209
 996, 352.001, 0.987343, 2.5957e-06, 0.103828, 0.442236
 999, 353.001, 0.987335, 2.71872e-06, 0.108749, 0.442265
 1002, 354.001, 0.987326, 2.84714e-06, 0.113886, 0.442295
 1005, 355.001, 0.987318, 2.98119e-06, 0.119248, 0.442326
 1008, 356.001, 0.987308, 3.1211e-06, 0.124844, 0.442358
 1011, 357.001, 0.987299, 3.26709e-06, 0.130684, 0.442392
 1014, 358.001, 0.987289, 3.41941e-06, 0.136776, 0.442427
 1017, 359.001, 0.987278, 3.57832e-06, 0.143133, 0.442464
 1020, 360.001, 0.987267, 3.74407e-06, 0.149763, 0.442502
 1023, 361.001, 0.987256, 3.91694e-06, 0.156677, 0.442542
 1026, 362.001, 0.987244, 4.0972e-06, 0.163888, 0.442583
 1029, 363.001, 0.987231, 4.28515e-06, 0.171406, 0.442627
 1032, 364.001, 0.987218, 4.48109e-06, 0.179244, 0.442672
 1035, 365.001, 0.987204, 4.68533e-06, 0.187413, 0.442719
 1038, 366.001, 0.98719, 4.89819e-06, 0.195927, 0.442768
 1041, 367.001, 0.987175, 5.12e-06, 0.2048, 0.442819
 1044, 368.001, 0.987159, 5.35111e-06, 0.214045, 0.442872
 1047, 369.001, 0.987143, 5.59189e-06, 0.223675, 0.442927
 1050, 370.001, 0.987126, 5.84269e-06, 0.233708, 0.442985
 1053, 371.001, 0.987108, 6.1039e-06, 0.244156, 0.443045
 1056, 372.001, 0.987089, 6.37592e-06, 0.255037, 0.443107
 1059, 373.001, 0.987069, 6.65916e-06, 0.266366, 0.443172
 1062, 374.001, 0.987049, 6.95403e-06, 0.278161, 0.44324
 1065, 375.001, 0.987028, 7.26098e-06, 0.290439, 0.44331
 1068, 376.001, 0.987005, 7.58047e-06, 0.303219, 0.443384
 1071, 377.001, 0.986982, 7.91295e-06, 0.316518, 0.44346
 1074, 378.001, 0.986958, 8.25892e-06, 0.330357, 0.443539
 1077, 379.001, 0.986933, 8.61887e-06, 0.344755, 0.443621
 1080, 380.001, 0.986906, 8.99332e-06, 0.359733, 0.443707
 1083, 381.001, 0.986879, 9.38281e-06, 0.375312, 0.443796
 1086, 382.001, 0.98685, 9.78788e-06, 0.391515, 0.443889
 1089, 383.001, 0.98682, 1.02091e-05, 0.408364, 0.443985
 1092, 384.001, 0.986789, 1.06471e-05, 0.425883, 0.444085
 1095, 385.001, 0.986756, 1.11024e-05, 0.444096, 0.444189
 1098, 386.001, 0.986722, 1.15757e-05, 0.463028, 0.444297
 1101, 387.001, 0.986687, 1.20676e-05, 0.482705, 0.444409
 1104, 388.001, 0.98665, 1.25789e-05, 0.503154, 0.444525
 1107, 389.001, 0.986611, 1.31101e-05, 0.524403, 0.444646
 1110, 390.001, 0.986571, 1.3662e-05, 0.54648, 0.444772
 1113, 391.001, 0.986529, 1.42353e-05, 0.569414, 0.444903
 1116, 392.001, 0.986485, 1.48309e-05, 0.593235, 0.445038
 1119, 393.001, 0.98644, 1.54494e-05, 0.617976, 0.445179
 1122, 394.001, 0.986393, 1.60917e-05, 0.643669, 0.445325
 1125, 395.001, 0.986343, 1.67586e-05, 0.670346, 0.445476
 1128, 396.001, 0.986292, 1.7451e-05, 0.698042, 0.445634
 1131, 397.001, 0.986239, 1.81698e-05, 0.726792, 0.445797
 1134, 398.001, 0.986183, 1.89158e-05, 0.756634, 0.445966
 1137, 399.001, 0.986125, 1.96901e-05, 0.787604, 0.446142
 1140, 400.001, 0.986065, 2.04935e-05, 0.819742, 0.446324
 1143, 401.001, 0.986002, 2.13272e-05, 0.853087, 0.446513
 1146, 402.001, 0.985937, 2.2192e-05, 0.88768, 0.446708
 1149, 403.001, 0.985869, 2.30891e-05, 0.923565, 0.446912
 1152, 404.001, 0.985798, 2.40196e-05, 0.960784, 0.447122
 1155, 405.001, 0.985725, 2.49846e-05, 0.999383, 0.44734
 1158, 406.001, 0.985648, 2.59852e-05, 1.03941, 0.447566
 1161, 407.001, 0.985569, 2.70227e-05, 1.08091, 0.447801
 1164, 408.001, 0.985486, 2.80982e-05, 1.12393, 0.448044
 1167, 409.001, 0.9854, 2.92131e-05, 1.16852, 0.448295
 1170, 410.001, 0.985311, 3.03686e-05, 1.21475, 0.448556
 1173, 411.001, 0.985218, 3.15662e-05, 1.26265, 0.448826
 1176, 412.001, 0.985121, 3.2807e-05, 1.31228, 0.449106
 1179, 413.001, 0.985021, 3.40927e-05, 1.36371, 0.449395
 1182, 414.001, 0.984917, 3.54246e-05, 1.41698, 0.449695
 1185, 415.001, 0.984808, 3.68042e-05, 1.47217, 0.450006
 1188, 416.001, 0.984696, 3.82331e-05, 1.52932, 0.450327
 1191, 417.001, 0.984579, 3.97129e-05, 1.58851, 0.45066
 1194, 418.001, 0.984458, 4.12451e-05, 1.64981, 0.451004
 1197, 419.001, 0.984331, 4.28316e-05, 1.71326, 0.45136
 1200, 420.001, 0.984201, 4.44739e-05, 1.77896, 0.451729
 1203, 421.001, 0.984065, 4.61739e-05, 1.84696, 0.452111
 1206, 422.001, 0.983923, 4.79334e-05, 1.91734, 0.452505
 1209, 423.001, 0.983777, 4.97542e-05, 1.99017, 0.452913
 1212, 424.001, 0.983625, 5.16383e-05, 2.06553, 0.453335
 1215, 425.001, 0.983467, 5.35876e-05, 2.1435, 0.453772
 1218, 426.001, 0.983303, 5.56042e-05, 2.22417, 0.454223
 1221, 427.001, 0.983133, 5.76901e-05, 2.3076, 0.45469
 1224, 428.001, 0.982957, 5.98475e-05, 2.3939, 0.455172
 1227, 429.001, 0.982774, 6.20785e-05, 2.48314, 0.455671
 1230, 430.001, 0.982584, 6.43854e-05, 2.57541, 0.456186
 1233, 431.001, 0.982388, 6.67705e-05, 2.67082, 0.456718
 1236, 432.001, 0.982184, 6.92361e-05, 2.76944, 0.457268
 1239, 433.001, 0.981972, 7.17847e-05, 2.87139, 0.457837
 1242, 434.001, 0.981753, 7.44187e-05, 2.97675, 0.458424
 1245, 435.001, 0.981525, 7.71407e-05, 3.08563, 0.45903
 1248, 436.001, 0.98129, 7.99533e-05, 3.19813, 0.459656
 1251, 437.001, 0.981046, 8.28591e-05, 3.31437, 0.460303
 1254, 438.001, 0.980793, 8.5861e-05, 3.43444, 0.46097
 1257, 439.001, 0.98053, 8.89616e-05, 3.55846, 0.461659
 1260, 440.001, 0.980259, 9.21638e-05, 3.68655, 0.462371
 1263, 441.001, 0.979977, 9.54706e-05, 3.81882, 0.463105
 1266, 442.001, 0.979686, 9.8885e-05, 3.9554, 0.463862
 1269, 443.001, 0.979384, 0.00010241, 4.0964, 0.464644
 1272, 444.001, 0.979071, 0.000106049, 4.24195, 0.46545
 1275, 445.001, 0.978747, 0.000109805, 4.39218, 0.466282
 1278, 446.001, 0.978412, 0.000113681, 4.54723, 0.46714
 1281, 447.001, 0.978065, 0.00011768, 4.70721, 0.468025
 1284, 448.001, 0.977706, 0.000121807, 4.87228, 0.468938
 1287, 449.001, 0.977334, 0.000126064, 5.04257, 0.469878
 1290, 450.001, 0.976949, 0.000130456, 5.21823, 0.470848
 1293, 451.001, 0.976551, 0.000134985, 5.3994, 0.471848
 1296, 452.001, 0.976139, 0.000139656, 5.58623, 0.472878
 1299, 453.001, 0.975713, 0.000144472, 5.77887, 0.47394
 1302, 454.001, 0.975272, 0.000149437, 5.97747, 0.475033
 1305, 455.001, 0.974816, 0.000154555, 6.18221, 0.47616
 1308, 456.001, 0.974345, 0.000159831, 6.39323, 0.477321
 1311, 457.001, 0.973857, 0.000165268, 6.6107, 0.478516
 1314, 458.001, 0.973353, 0.00017087, 6.83479, 0.479748
 1317, 459.001, 0.972832, 0.000176642, 7.06567, 0.481015
 1320, 460.001, 0.972293, 0.000182588, 7.30351, 0.48232
 1323, 461.001, 0.971736, 0.000188712, 7.5485, 0.483663
 1326, 462.001, 0.97116, 0.00019502, 7.8008, 0.485045
 1329, 463.001, 0.970565, 0.000201515, 8.0606, 0.486468
 1332, 464.001, 0.969951, 0.000208202, 8.32809, 0.487931
 1335, 465.001, 0.969316, 0.000215086, 8.60346, 0.489437
 1338, 466.001, 0.96866, 0.000222172, 8.88689, 0.490986
 1341, 467.001, 0.967983, 0.000229465, 9.17858, 0.492578
 1344, 468.001, 0.967283, 0.000236968, 9.47874, 0.494216
 1347, 469.001, 0.966561, 0.000244689, 9.78755, 0.495899
 1350, 470.001, 0.965815, 0.00025263, 10.1052, 0.49763
 1353, 471.001, 0.965044, 0.000260799, 10.432, 0.499409
 1356, 472.001, 0.964249, 0.000269199, 10.768, 0.501237
 1359, 473.001, 0.963429, 0.000277836, 11.1135, 0.503115
 1362, 474.001, 0.962582, 0.000286716, 11.4686, 0.505044
 1365, 475.001, 0.961708, 0.000295844, 11.8337, 0.507025
 1368, 476.001, 0.960807, 0.000305224, 12.209, 0.50906
 1371, 477.001, 0.959877, 0.000314863, 12.5945, 0.511149
 1374, 478.001, 0.958917, 0.000324767, 12.9907, 0.513293
 1377, 479.001, 0.957928, 0.00033494, 13.3976, 0.515495
 1380, 480.001, 0.956907, 0.000345388, 13.8155, 0.517753
 1383, 481.001, 0.955855, 0.000356117, 14.2447, 0.520071
 1386, 482.001, 0.95477, 0.000367133, 14.6853, 0.522448
 1389, 483.001, 0.953652, 0.00037844, 15.1376, 0.524886
 1392, 484.001, 0.952499, 0.000390046, 15.6018, 0.527386
 1395, 485.001, 0.951311, 0.000401955, 16.0782, 0.529949
 1398, 486.001, 0.950087, 0.000414173, 16.5669, 0.532576
 1401, 487.001, 0.948826, 0.000426706, 17.0682, 0.535268
 1404, 488.001, 0.947526, 0.000439559, 17.5824, 0.538027
 1407, 489.001, 0.946188, 0.000452739, 18.1096, 0.540852
 1410, 490.001, 0.944809, 0.00046625, 18.65, 0.543746
 1413, 491.001, 0.94339, 0.000480099, 19.204, 0.546709
 1416, 492.001, 0.941928, 0.00049429, 19.7716, 0.549742
 1419, 493.001, 0.940423, 0.00050883, 20.3532, 0.552846
 1422, 494.001, 0.938875, 0.000523724, 20.949, 0.556022
 1425, 495.001, 0.937281, 0.000538977, 21.5591, 0.559271
 1428, 496.001, 0.93564, 0.000554593, 22.1837, 0.562594
 1431, 497.001, 0.933953, 0.00057058, 22.8232, 0.565992
 1434, 498.001, 0.932216, 0.00058694, 23.4776, 0.569465
 1437, 499.001, 0.93043, 0.00060368, 24.1472, 0.573013
 1440, 500.001, 0.928594, 0.000620804, 24.8322, 0.576639
 1443, 501.001, 0.926705, 0.000638316, 25.5327, 0.580343
 1446, 502.001, 0.924763, 0.000656222, 26.2489, 0.584124
 1449, 503.001, 0.922767, 0.000674524, 26.981, 0.587984
 1452, 504.001, 0.920715, 0.000693228, 27.7291, 0.591924
 1455, 505.001, 0.918607, 0.000712336, 28.4935, 0.595943
 1458, 506.001, 0.916441, 0.000731853, 29.2741, 0.600041
 1461, 507.001, 0.914215, 0.000751782, 30.0713, 0.60422
 1464, 508.001, 0.91193, 0.000772125, 30.885, 0.60848
 1467, 509.001, 0.909582, 0.000792886, 31.7154, 0.61282
 1470, 510.001, 0.907172, 0.000814066, 32.5627, 0.617241
 1473, 511.001, 0.904697, 0.000835668, 33.4267, 0.621742
 1476, 512.001, 0.902157, 0.000857694, 34.3077, 0.626323
 1479, 513.001, 0.89955, 0.000880143, 35.2057, 0.630985
 1482, 514.001, 0.896875, 0.000903018, 36.1207, 0.635726
 1485, 515.001, 0.894131, 0.000926319, 37.0528, 0.640546
 1488, 516.001, 0.891317, 0.000950045, 38.0018, 0.645445
 1491, 517.001, 0.88843, 0.000974196, 38.9678, 0.650422
 1494, 518.001, 0.885471, 0.00099877, 39.9508, 0.655475
 1497, 519.001, 0.882437, 0.00102377, 40.9507, 0.660605
 1500, 520.001, 0.879328, 0.00104918, 41.9673, 0.665809
 1503, 521.001, 0.876141, 0.00107502, 43.0006, 0.671087
 1506, 522.001, 0.872877, 0.00110126, 44.0505, 0.676436
 1509, 523.001, 0.869533, 0.00112792, 45.1167, 0.681856
 1512, 524.001, 0.866109, 0.00115498, 46.199, 0.687343
 1515, 525.001, 0.862603, 0.00118243, 47.2973, 0.692898
 1518, 526.001, 0.859014, 0.00121028, 48.4113, 0.698516
 1521, 527.001, 0.85534, 0.00123852, 49.5406, 0.704195
 1524, 528.001, 0.851582, 0.00126713, 50.685, 0.709934
 1527, 529.001, 0.847737, 0.0012961, 51.8441, 0.715729
 1530, 530.001, 0.843805, 0.00132544, 53.0175, 0.721576
 1533, 531.001, 0.839784, 0.00135512, 54.2047, 0.727473
 1536, 532.001, 0.835673, 0.00138513, 55.4054, 0.733417
 1539, 533.001, 0.831472, 0.00141547, 56.6189, 0.739402
 1542, 534.001, 0.82718, 0.00144612, 57.8448, 0.745426
 1545, 535.001, 0.822795, 0.00147706, 59.0823, 0.751483
 1548, 536.001, 0.818317, 0.00150828, 60.331, 0.75757
 1551, 537.001, 0.813745, 0.00153975, 61.5901, 0.763682
 1554, 538.001, 0.809078, 0.00157147, 62.8588, 0.769812
 1557, 539.001, 0.804315, 0.00160341, 64.1364, 0.775957
 1560, 540.001, 0.799457, 0.00163555, 65.4221, 0.782109
 1563, 541.001, 0.794501, 0.00166787, 66.7149, 0.788264
 1566, 542.001, 0.789449, 0.00170035, 68.014, 0.794414
 1569, 543.001, 0.784299, 0.00173296, 69.3183, 0.800554
 1572, 544.001, 0.779051, 0.00176567, 70.6269, 0.806676
 1575, 545.001, 0.773705, 0.00179846, 71.9385, 0.812772
 1578, 546.001, 0.76826, 0.0018313, 73.2522, 0.818837
 1581, 547.001, 0.762716, 0.00186417, 74.5666, 0.82486
 1584, 548.001, 0.757074, 0.00189701, 75.8806, 0.830835
 1587, 549.001, 0.751334, 0.00192982, 77.1927, 0.836753
 1590, 550.001, 0.745495, 0.00196254, 78.5018, 0.842604
 1593, 551.001, 0.739558, 0.00199516, 79.8062, 0.848381
 1596, 552.001, 0.733524, 0.00202762, 81.1046, 0.854073
 1599, 553.001, 0.727393, 0.00205989, 82.3954, 0.85967
 1602, 554.001, 0.721165, 0.00209193, 83.6771, 0.865162
 1605, 555.001, 0.714841, 0.0021237, 84.9479, 0.87054
 1608, 556.001, 0.708423, 0.00215516, 86.2062, 0.875792
 1611, 557.001, 0.70191, 0.00218626, 87.4503, 0.880907
 1614, 558.001, 0.695305, 0.00221696, 88.6783, 0.885875
 1617, 559.001, 0.688609, 0.00224721, 89.8883, 0.890683
 1620, 560.001, 0.681822, 0.00227697, 91.0786, 0.89532
 1623, 561.001, 0.674947, 0.00230618, 92.2471, 0.899774
 1626, 562.001, 0.667985, 0.0023348, 93.3919, 0.904033
 1629, 563.001, 0.660939, 0.00236277, 94.511, 0.908085
 1632, 564.001, 0.653809, 0.00239006, 95.6022, 0.911916
 1635, 565.001, 0.646599, 0.00241659, 96.6635, 0.915515
 1638, 566.001, 0.63931, 0.00244232, 97.6928, 0.918868
 1641, 567.001, 0.631945, 0.0024672, 98.6879, 0.921962
 1644, 568.001, 0.624508, 0.00249117, 99.6467, 0.924785
 1647, 569.001, 0.616999, 0.00251417, 100.567, 0.927324
 1650, 570.001, 0.609423, 0.00253616, 101.446, 0.929565
 1653, 571.001, 0.601783, 0.00255707, 102.283, 0.931496
 1656, 572.001, 0.594082, 0.00257686, 103.074, 0.933104
 1659, 573.001, 0.586323, 0.00259545, 103.818, 0.934375
 1662, 574.001, 0.57851, 0.00261282, 104.513, 0.935297
 1665, 575.001, 0.570647, 0.00262888, 105.155, 0.935859
 1668, 576.001, 0.562738, 0.0026436, 105.744, 0.936046
 1671, 577.001, 0.554787, 0.00265692, 106.277, 0.935849
 1674, 578.001, 0.546798, 0.00266879, 106.751, 0.935254
 1677, 579.001, 0.538775, 0.00267915, 107.166, 0.934251
 1680, 580.001, 0.530724, 0.00268796, 107.518, 0.932828
 1683, 581.001, 0.522649, 0.00269517, 107.807, 0.930976
 1686, 582.001, 0.514555, 0.00270073, 108.029, 0.928685
 1689, 583.001, 0.506446, 0.0027046, 108.184, 0.925946
 1692, 584.001, 0.498329, 0.00270674, 108.27, 0.922749
 1695, 585.001, 0.490208, 0.00270711, 108.284, 0.919088
 1698, 586.001, 0.482088, 0.00270567, 108.227, 0.914955
 1701, 587.001, 0.473976, 0.00270239, 108.095, 0.910343
 1704, 588.001, 0.465876, 0.00269723, 107.889, 0.905248
 1707, 589.001, 0.457794, 0.00269017, 107.607, 0.899664
 1710, 590.001, 0.449737, 0.00268119, 107.248, 0.893589
 1713, 591.001, 0.441709, 0.00267027, 106.811, 0.88702
 1716, 592.001, 0.433717, 0.00265738, 106.295, 0.879955
 1719, 593.001, 0.425767, 0.00264253, 105.701, 0.872394
 1722, 594.001, 0.417864, 0.0026257, 105.028, 0.864338
 1725, 595.001, 0.410015, 0.00260689, 104.275, 0.855789
 1728, 596.001, 0.402225, 0.00258609, 103.444, 0.84675
 1731, 597.001, 0.394501, 0.00256333, 102.533, 0.837227
 1734, 598.001, 0.386847, 0.00253861, 101.544, 0.827224
 1737, 599.001, 0.379271, 0.00251195, 100.478, 0.81675
 1740, 600.001, 0.371778, 0.00248337, 99.3347, 0.805812
 1743, 601.001, 0.364373, 0.0024529, 98.1159, 0.794421
 1746, 602.001, 0.357063, 0.00242057, 96.8228, 0.782588
 1749, 603.001, 0.349852, 0.00238643, 95.457, 0.770327
 1752, 604.001, 0.342746, 0.00235051, 94.0204, 0.757651
 1755, 605.001, 0.335751, 0.00231287, 92.5148, 0.744575
 1758, 606.001, 0.328871, 0.00227357, 90.9427, 0.731117
 1761, 607.001, 0.322111, 0.00223266, 89.3063, 0.717296
 1764, 608.001, 0.315477, 0.00219021, 87.6084, 0.703129
 1767, 609.001, 0.308972, 0.00214629, 85.8518, 0.68864
 1770, 610.001, 0.302601, 0.00210099, 84.0396, 0.673848
 1773, 611.001, 0.296368, 0.00205438, 82.1751, 0.658779
 1776, 612.001, 0.290276, 0.00200654, 80.2618, 0.643455
 1779, 613.001, 0.28433, 0.00195758, 78.3031, 0.627903
 1782, 614.001, 0.278532, 0.00190758, 76.3031, 0.612148
 1785, 615.001, 0.272886, 0.00185664, 74.2655, 0.596218
 1788, 616.001, 0.267394, 0.00180486, 72.1945, 0.580141
 1791, 617.001, 0.262058, 0.00175236, 70.0943, 0.563945
 1794, 618.001, 0.256881, 0.00169923, 67.9691, 0.547659
 1797, 619.001, 0.251864, 0.00164559, 65.8234, 0.531312
 1800, 620.001, 0.247008, 0.00159154, 63.6617, 0.514936
 1803, 621.001, 0.242316, 0.00153721, 61.4884, 0.498558
 1806, 622.001, 0.237786, 0.0014827, 59.3081, 0.482211
 1809, 623.001, 0.23342, 0.00142813, 57.1253, 0.465923
 1812, 624.001, 0.229218, 0.00137362, 54.9447, 0.449724
 1815, 625.001, 0.225179, 0.00131927, 52.7707, 0.433644
 1818, 626.001, 0.221302, 0.0012652, 50.6078, 0.417712
 1821, 627.001, 0.217588, 0.00121151, 48.4605, 0.401956
 1824, 628.001, 0.214033, 0.00115832, 46.3329, 0.386403
 1827, 629.001, 0.210638, 0.00110573, 44.2293, 0.37108
 1830, 630.001, 0.207399, 0.00105385, 42.1539, 0.356014
 1833, 631.001, 0.204314, 0.00100276, 40.1104, 0.341228
 1836, 632.001, 0.201382, 0.000952564, 38.1026, 0.326745
 1839, 633.001, 0.198598, 0.000903351, 36.134, 0.312588
 1842, 634.002, 0.195961, 0.000855202, 34.2081, 0.298776
 1845, 635.002, 0.193466, 0.000808196, 32.3278, 0.28533
 1848, 636.002, 0.191111, 0.000762404, 30.4962, 0.272265
 1851, 637.002, 0.188891, 0.000717893, 28.7157, 0.259598
 1854, 638.002, 0.186803, 0.000674722, 26.9889, 0.247342
 1857, 639.002, 0.184842, 0.000632943, 25.3177, 0.235509
 1860, 640.002, 0.183004, 0.000592602, 23.7041, 0.224109
 1863, 641.002, 0.181285, 0.000553738, 22.1495, 0.213151
 1866, 642.002, 0.179681, 0.000516383, 20.6553, 0.202639
 1869, 643.002, 0.178186, 0.000480562, 19.2225, 0.19258
 1872, 644.002, 0.176796, 0.000446293, 17.8517, 0.182975
 1875, 645.002, 0.175507, 0.000413586, 16.5434, 0.173825
 1878, 646.002, 0.174313, 0.000382445, 15.2978, 0.165128
 1881, 647.002, 0.173211, 0.000352867, 14.1147, 0.156883
 1884, 648.002, 0.172195, 0.000324845, 12.9938, 0.149085
 1887, 649.002, 0.17126, 0.000298362, 11.9345, 0.141727
 1890, 650.002, 0.170403, 0.000273398, 10.9359, 0.134802
 1893, 651.002, 0.169619, 0.000249927, 9.99707, 0.128301
 1896, 652.002, 0.168903, 0.000227916, 9.11665, 0.122213
 1899, 653.002, 0.16825, 0.000207331, 8.29322, 0.116528
 1902, 654.002, 0.167657, 0.00018813, 7.52518, 0.111232
 1905, 655.002, 0.16712, 0.000170269, 6.81076, 0.106313
 1908, 656.002, 0.166635, 0.000153702, 6.14807, 0.101755
 1911, 657.002, 0.166197, 0.000138377, 5.53509, 0.097545
 1914, 658.002, 0.165803, 0.000124243, 4.96972, 0.0936666
 1917, 659.002, 0.16545, 0.000111245, 4.44978, 0.090104
 1920, 660.002, 0.165135, 9.9326e-05, 3.97304, 0.0868412
 1923, 661.002, 0.164854, 8.84304e-05, 3.53722, 0.0838617
 1926, 662.002, 0.164603, 7.85004e-05, 3.14002, 0.0811493
 1929, 663.002, 0.164382, 6.94784e-05, 2.77914, 0.0786873
 1932, 664.002, 0.164186, 6.13073e-05, 2.45229, 0.0764598
 1935, 665.002, 0.164013, 5.39306e-05, 2.15722, 0.0744508
 1938, 666.002, 0.163862, 4.72926e-05, 1.8917, 0.0726449
 1941, 667.002, 0.163729, 4.13392e-05, 1.65357, 0.0710266
 1944, 668.002, 0.163613, 3.60177e-05, 1.44071, 0.0695814
 1947, 669.002, 0.163512, 3.12773e-05, 1.25109, 0.0682952
 1950, 670.002, 0.163425, 2.70692e-05, 1.08277, 0.0671542
 1953, 671.002, 0.163349, 2.33468e-05, 0.933872, 0.0661459
 1956, 672.002, 0.163284, 2.00659e-05, 0.802637, 0.0652581
 1959, 673.002, 0.163229, 1.71847e-05, 0.687389, 0.0644787
 1962, 674.002, 0.163181, 1.46639e-05, 0.586556, 0.0637976
 1965, 675.002, 0.16314, 1.24667e-05, 0.498668, 0.0632043
 1968, 676.002, 0.163106, 1.05589e-05, 0.422358, 0.0626894
 1971, 677.002, 0.163077, 8.90895e-06, 0.356358, 0.0622445
 1974, 678.002, 0.163052, 7.48754e-06, 0.299502, 0.0618615
 1977, 679.002, 0.163032, 6.268e-06, 0.25072, 0.0615331
 1980, 680.002, 0.163014, 5.22595e-06, 0.209038, 0.0612525
 1983, 681.002, 0.163, 4.33926e-06, 0.173571, 0.0610141
 1986, 682.002, 0.162988, 3.58798e-06, 0.143519, 0.0608122
 1989, 683.002, 0.162978, 2.95417e-06, 0.118167, 0.060642
 1992, 684.002, 0.16297, 2.4218e-06, 0.0968719, 0.0604991
 1995, 685.002, 0.162964, 1.97663e-06, 0.0790652, 0.0603796
 1998, 686.002, 0.162958, 1.60607e-06, 0.0642427, 0.0602801
 2001, 687.002, 0.162954, 1.29903e-06, 0.0519611, 0.060198
 2004, 688.002, 0.162951, 1.04582e-06, 0.0418327, 0.06013
 2007, 689.002, 0.162948, 8.37989e-07, 0.0335196, 0.0600744
 2010, 690.002, 0.162946, 6.68239e-07, 0.0267296, 0.0600291
 2013, 691.002, 0.162944, 5.30273e-07, 0.0212109, 0.0599921
 2016, 692.002, 0.162942, 4.187e-07, 0.016748, 0.0599622
 2019, 693.002, 0.162941, 3.28932e-07, 0.0131573, 0.0599383
 2022, 694.002, 0.16294, 2.57081e-07, 0.0102832, 0.0599191
 2025, 695.002, 0.16294, 1.99874e-07, 0.00799495, 0.0599038
 2028, 696.002, 0.162939, 1.5457e-07, 0.00618278, 0.0598917
 2031, 697.002, 0.162939, 1.18887e-07, 0.00475549, 0.0598823
 2034, 698.002, 0.162938, 9.09385e-08, 0.00363754, 0.0598748
 2037, 699.002, 0.162938, 6.91705e-08, 0.00276682, 0.059869
 2040, 700.002, 0.162938, 5.23134e-08, 0.00209254, 0.0598644
 2043, 701.002, 0.162938, 3.93352e-08, 0.00157341, 0.059861
 2046, 702.002, 0.162938, 2.94024e-08, 0.0011761, 0.0598583
 2049, 703.002, 0.162938, 2.18461e-08, 0.000873845, 0.0598564
 2052, 704.002, 0.162938, 1.61328e-08, 0.000645313, 0.0598549
 2055, 705.002, 0.162938, 1.18398e-08, 0.000473593, 0.0598537
 2058, 706.002, 0.162938, 8.63446e-09, 0.000345378, 0.0598528
 2061, 707.002, 0.162938, 6.25651e-09, 0.00025026, 0.0598523
 2064, 708.002, 0.162938, 4.50391e-09, 0.000180156, 0.0598518
 2067, 709.002, 0.162938, 3.22076e-09, 0.000128831, 0.0598514
 2070, 710.002, 0.162938, 2.28766e-09, 9.15066e-05, 0.0598512
 2073, 711.002, 0.162938, 1.61377e-09, 6.45506e-05, 0.059851
 2076, 712.002, 0.162938, 1.13045e-09, 4.52182e-05, 0.0598508
 2079, 713.002, 0.162938, 7.86284e-10, 3.14514e-05, 0.0598507
 2082, 714.002, 0.162938, 5.4296e-10, 2.17184e-05, 0.0598507
 2085, 715.002, 0.162938, 3.72192e-10, 1.48877e-05, 0.0598507
 2088, 716.002, 0.162938, 2.53234e-10, 1.01294e-05, 0.0598506
 2091, 717.002, 0.162938, 1.70994e-10, 6.83976e-06, 0.0598507
 2094, 718.002, 0.162938, 1.14575e-10, 4.58298e-06, 0.0598507
 2097, 719.002, 0.162938, 7.61708e-11, 3.04683e-06, 0.0598506
 2100, 720.002, 0.162938, 5.02373e-11, 2.00949e-06, 0.0598505
 2103, 721.002, 0.162938, 3.28658e-11, 1.31463e-06, 0.0598507
 2106, 722.002, 0.162938, 2.13248e-11, 8.5299e-07, 0.0598507
 2109, 723.002, 0.162938, 1.37211e-11, 5.48842e-07, 0.0598505
 2112, 724.002, 0.162938, 8.75378e-12, 3.50151e-07, 0.0598506
 2115, 725.002, 0.162938, 5.53665e-12, 2.21466e-07, 0.0598506
 2118, 726.002, 0.162938, 3.47122e-12, 1.38849e-07, 0.0598505
 2121, 727.002, 0.162938, 2.15693e-12, 8.62773e-08, 0.0598505
 2124, 728.002, 0.162938, 1.32816e-12, 5.31263e-08, 0.0598506
 2127, 729.002, 0.162938, 8.10319e-13, 3.24128e-08, 0.0598506
 2130, 730.002, 0.162938, 4.89769e-13, 1.95908e-08, 0.0598506
 2133, 731.002, 0.162938, 2.93218e-13, 1.17287e-08, 0.0598505
 2136, 732.002, 0.162938, 1.73855e-13, 6.9542e-09, 0.0598506
 2139, 733.002, 0.162938, 1.02073e-13, 4.08293e-09, 0.0598506
 2142, 734.002, 0.162938, 5.93334e-14, 2.37333e-09, 0.0598505
 2145, 735.002, 0.162938, 3.41411e-14, 1.36564e-09, 0.0598506
 2148, 736.002, 0.162938, 1.94436e-14, 7.77743e-10, 0.0598506
 2151, 737.002, 0.162938, 1.09578e-14, 4.38314e-10, 0.0598506
 2154, 738.002, 0.162938, 6.11015e-15, 2.44406e-10, 0.0598506
 2157, 739.002, 0.162938, 3.37041e-15, 1.34816e-10, 0.0598506
 2160, 740.002, 0.162938, 1.83883e-15, 7.35534e-11, 0.0598506
 2163, 741.002, 0.162938, 9.92104e-16, 3.96842e-11, 0.0598506
 2166, 742.002, 0.162938, 5.29237e-16, 2.11695e-11, 0.0598507
 2169, 743.002, 0.162938, 2.79089e-16, 1.11636e-11, 0.0598506
 2172, 744.002, 0.162938, 1.45465e-16, 5.81859e-12, 0.0598505
 2175, 745.002, 0.162938, 7.4923e-17, 2.99692e-12, 0.0598507
 2178, 746.002, 0.162938, 3.81271e-17, 1.52508e-12, 0.0598506
 2181, 747.002, 0.162938, 1.9166e-17, 7.66642e-13, 0.0598506
 2184, 748.002, 0.162938, 9.51542e-18, 3.80617e-13, 0.0598506
 2187, 749.002, 0.162938, 4.66483e-18, 1.86593e-13, 0.0598506
 2190, 750.002, 0.162938, 2.25773e-18, 9.03092e-14, 0.0598505
 2193, 751.002, 0.162938, 1.07857e-18, 4.31429e-14, 0.0598505
 2196, 752.002, 0.162938, 5.08487e-19, 2.03395e-14, 0.0598507
 2199, 753.002, 0.162938, 2.36525e-19, 9.46099e-15, 0.0598505
 2202, 754.002, 0.162938, 1.0853e-19, 4.34118e-15, 0.0598506
 2205, 755.002, 0.162938, 4.91138e-20, 1.96455e-15, 0.0598505
 2208, 756.002, 0.162938, 2.19155e-20, 8.76619e-16, 0.0598506
 2211, 757.002, 0.162938, 9.64045e-21, 3.85618e-16, 0.0598505
 2214, 758.002, 0.162938, 4.17972e-21, 1.67189e-16, 0.0598507
 2217, 759.002, 0.162938, 1.78568e-21, 7.14273e-17, 0.0598507
 2220, 760.002, 0.162938, 7.51575e-22, 3.0063e-17, 0.0598506
 2223, 761.002, 0.162938, 3.11567e-22, 1.24627e-17, 0.0598505
 2226, 762.002, 0.162938, 1.27187e-22, 5.08749e-18, 0.0598505
 2229, 763.002, 0.162938, 5.11147e-23, 2.04459e-18, 0.0598507
 2232, 764.002, 0.162938, 2.02189e-23, 8.08754e-19, 0.0598504
 2235, 765.002, 0.162938, 7.86994e-24, 3.14798e-19, 0.0598507
 2238, 766.002, 0.162938, 3.0136e-24, 1.20544e-19, 0.0598507
 2241, 767.002, 0.162938, 1.13499e-24, 4.53997e-20, 0.0598506
 2244, 768.002, 0.162938, 4.20324e-25, 1.6813e-20, 0.0598505
 2247, 769.002, 0.162938, 1.53021e-25, 6.12084e-21, 0.0598507
 2250, 770.002, 0.162938, 5.47498e-26, 2.18999e-21, 0.0598505
 2253, 771.002, 0.162938, 1.92471e-26, 7.69886e-22, 0.0598507
 2256, 772.002, 0.162938, 6.64643e-27, 2.65857e-22, 0.0598505
 2259, 773.002, 0.162938, 2.2539e-27, 9.01559e-23, 0.0598505
 2262, 774.002, 0.162938, 7.50389e-28, 3.00156e-23, 0.0598506
 2265, 775.002, 0.162938, 2.45204e-28, 9.80816e-24, 0.0598506
 2268, 776.002, 0.162938, 7.86209e-29, 3.14483e-24, 0.0598506
 2271, 777.002, 0.162938, 2.47284e-29, 9.89136e-25, 0.0598506
 2274, 778.002, 0.162938, 7.62745e-30, 3.05098e-25, 0.0598507
 2277, 779.002, 0.162938, 2.30655e-30, 9.22621e-26, 0.0598506
 2280, 780.002, 0.162938, 6.83633e-31, 2.73453e-26, 0.0598506
 2283, 781.002, 0.162938, 1.98532e-31, 7.94127e-27, 0.0598507
 2286, 782.002, 0.162938, 5.64749e-32, 2.259e-27, 0.0598506
 2289, 783.002, 0.162938, 1.57314e-32, 6.29258e-28, 0.0598506
 2292, 784.002, 0.162938, 4.28981e-33, 1.71592e-28, 0.0598507
 2295, 785.002, 0.162938, 1.1448e-33, 4.57919e-29, 0.0598505
 2298, 786.002, 0.162938, 2.98885e-34, 1.19554e-29, 0.0598506
 2301, 787.002, 0.162938, 7.63185e-35, 3.05274e-30, 0.0598507
 2304, 788.002, 0.162938, 1.9053e-35, 7.62121e-31, 0.0598505
 2307, 789.002, 0.162938, 4.64908e-36, 1.85963e-31, 0.0598504
 2310, 790.002, 0.162938, 1.1084e-36, 4.4336e-32, 0.0598506
 2313, 791.002, 0.162938, 2.58111e-37, 1.03244e-32, 0.0598506
 2316, 792.002, 0.162938, 5.86885e-38, 2.34754e-33, 0.0598506
 2319, 793.002, 0.162938, 1.30253e-38, 5.21011e-34, 0.0598506
 2322, 794.002, 0.162938, 0.0000000E+000, 1.12828e-34, 0.0598506
 2325, 795.002, 0.162938, 0.0000000E+000, 2.38329e-35, 0.0598505
 2328, 796.002, 0.162938, 0.0000000E+000, 4.9087e-36, 0.0598504
 2331, 797.002, 0.162938, 0.0000000E+000, 9.85449e-37, 0.0598506
 2334, 798.002, 0.162938, 0.0000000E+000, 1.92762e-37, 0.0598505
 2337, 799.002, 0.162938, 0.0000000E+000, 3.67257e-38, 0.0598506
 2340, 800.002, 0.162938, 0.0000000E+000, 0.0000000E+000, 0.0598507