File: examples/Birch_TGA_Example/Work/Cone_arvlop4v/birch_tga_1step_5_tga.csv
s,C,g/g,1/s,W/g,W/g
Time,Temp,Mass,MLR,MCC,DSC
 12, 21.0003, 0.999993, 6.11641e-07, 0.0000000E+000, 0.121505
 24, 22.0003, 0.999985, 7.02365e-07, 0.0000000E+000, 0.121708
 36, 23.0003, 0.999976, 8.05766e-07, 0.0000000E+000, 0.121938
 48, 24.0003, 0.999966, 9.23498e-07, 0.0000000E+000, 0.122201
 60, 25.0003, 0.999954, 1.05742e-06, 0.0000000E+000, 0.1225
 72, 26.0003, 0.99994, 1.2096e-06, 0.0000000E+000, 0.12284
 84, 27.0003, 0.999925, 1.38236e-06, 0.0000000E+000, 0.123225
 96, 28.0003, 0.999907, 1.57829e-06, 0.0000000E+000, 0.123662
 108, 29.0003, 0.999887, 1.80028e-06, 0.0000000E+000, 0.124158
 120, 30.0003, 0.999864, 2.05153e-06, 0.0000000E+000, 0.124718
 132, 31.0003, 0.999838, 2.33562e-06, 0.0000000E+000, 0.125352
 144, 32.0003, 0.999808, 2.65649e-06, 0.0000000E+000, 0.126067
 156, 33.0003, 0.999774, 3.01853e-06, 0.0000000E+000, 0.126875
 168, 34.0003, 0.999735, 3.42658e-06, 0.0000000E+000, 0.127785
 180, 35.0003, 0.999691, 3.88597e-06, 0.0000000E+000, 0.128809
 192, 36.0003, 0.999641, 4.40258e-06, 0.0000000E+000, 0.12996
 204, 37.0003, 0.999585, 4.98285e-06, 0.0000000E+000, 0.131254
 216, 38.0003, 0.999522, 5.63384e-06, 0.0000000E+000, 0.132705
 228, 39.0003, 0.99945, 6.36325e-06, 0.0000000E+000, 0.13433
 240, 40.0003, 0.999369, 7.17944e-06, 0.0000000E+000, 0.136149
 252, 41.0003, 0.999277, 8.09149e-06, 0.0000000E+000, 0.13818
 264, 42.0003, 0.999174, 9.10918e-06, 0.0000000E+000, 0.140447
 276, 43.0003, 0.999058, 1.0243e-05, 0.0000000E+000, 0.142972
 288, 44.0003, 0.998928, 1.15042e-05, 0.0000000E+000, 0.145781
 300, 45.0003, 0.998781, 1.29047e-05, 0.0000000E+000, 0.148898
 312, 46.0003, 0.998617, 1.4457e-05, 0.0000000E+000, 0.152354
 324, 47.0003, 0.998434, 1.61741e-05, 0.0000000E+000, 0.156175
 336, 48.0003, 0.998228, 1.80696e-05, 0.0000000E+000, 0.160392
 348, 49.0003, 0.997999, 2.01572e-05, 0.0000000E+000, 0.165036
 360, 50.0003, 0.997744, 2.24507e-05, 0.0000000E+000, 0.170136
 372, 51.0003, 0.997459, 2.49637e-05, 0.0000000E+000, 0.175724
 384, 52.0003, 0.997144, 2.77091e-05, 0.0000000E+000, 0.181825
 396, 53.0003, 0.996793, 3.06987e-05, 0.0000000E+000, 0.188468
 408, 54.0003, 0.996406, 3.39427e-05, 0.0000000E+000, 0.195673
 420, 55.0003, 0.995978, 3.74491e-05, 0.0000000E+000, 0.203458
 432, 56.0003, 0.995506, 4.12227e-05, 0.0000000E+000, 0.211832
 444, 57.0003, 0.994987, 4.52644e-05, 0.0000000E+000, 0.220796
 456, 58.0003, 0.994418, 4.95698e-05, 0.0000000E+000, 0.230339
 468, 59.0003, 0.993797, 5.41286e-05, 0.0000000E+000, 0.240437
 480, 60.0003, 0.993118, 5.89226e-05, 0.0000000E+000, 0.251048
 492, 61.0003, 0.992381, 6.39249e-05, 0.0000000E+000, 0.262109
 504, 62.0003, 0.991583, 6.90982e-05, 0.0000000E+000, 0.273537
 516, 63.0003, 0.990723, 7.43934e-05, 0.0000000E+000, 0.285217
 528, 64.0003, 0.989798, 7.97484e-05, 0.0000000E+000, 0.297011
 540, 65.0002, 0.988809, 8.50867e-05, 0.0000000E+000, 0.308745
 552, 66.0002, 0.987756, 9.03173e-05, 0.0000000E+000, 0.320212
 564, 67.0002, 0.986642, 9.53341e-05, 0.0000000E+000, 0.331174
 576, 68.0002, 0.985469, 0.000100017, 0.0000000E+000, 0.341359
 588, 69.0002, 0.984243, 0.000104232, 0.0000000E+000, 0.350468
 600, 70.0002, 0.98297, 0.000107836, 0.0000000E+000, 0.358179
 612, 71.0002, 0.981658, 0.000110681, 0.0000000E+000, 0.364157
 624, 72.0002, 0.980317, 0.000112618, 0.0000000E+000, 0.36807
 636, 73.0002, 0.97896, 0.000113505, 0.0000000E+000, 0.369604
 648, 74.0002, 0.977598, 0.000113219, 0.0000000E+000, 0.368478
 660, 75.0002, 0.976247, 0.000111658, 0.0000000E+000, 0.364475
 672, 76.0002, 0.974924, 0.000108763, 0.0000000E+000, 0.35746
 684, 77.0002, 0.973643, 0.000104517, 0.0000000E+000, 0.347403
 696, 78.0002, 0.97242, 9.89605e-05, 0.0000000E+000, 0.334403
 708, 79.0002, 0.971272, 9.21961e-05, 0.0000000E+000, 0.318694
 720, 80.0003, 0.970212, 8.43899e-05, 0.0000000E+000, 0.300659
 732, 81.0003, 0.96925, 7.57684e-05, 0.0000000E+000, 0.280815
 744, 82.0003, 0.968396, 6.66095e-05, 0.0000000E+000, 0.259791
 756, 83.0003, 0.967653, 5.72266e-05, 0.0000000E+000, 0.2383
 768, 84.0003, 0.967022, 4.7947e-05, 0.0000000E+000, 0.217083
 780, 85.0003, 0.9665, 3.90874e-05, 0.0000000E+000, 0.196853
 792, 86.0003, 0.966081, 3.09276e-05, 0.0000000E+000, 0.178244
 804, 87.0003, 0.965755, 2.36877e-05, 0.0000000E+000, 0.161749
 816, 88.0003, 0.965509, 1.75105e-05, 0.0000000E+000, 0.147686
 828, 89.0003, 0.96533, 1.24535e-05, 0.0000000E+000, 0.136181
 840, 90.0003, 0.965205, 8.49205e-06, 0.0000000E+000, 0.127175
 852, 91.0004, 0.965122, 5.53148e-06, 0.0000000E+000, 0.120447
 864, 92.0004, 0.965069, 3.42787e-06, 0.0000000E+000, 0.11567
 876, 93.0004, 0.965037, 2.01216e-06, 0.0000000E+000, 0.112455
 888, 94.0004, 0.965019, 1.11352e-06, 0.0000000E+000, 0.110416
 900, 95.0004, 0.965009, 5.77975e-07, 0.0000000E+000, 0.109201
 912, 96.0004, 0.965004, 2.79825e-07, 0.0000000E+000, 0.108525
 924, 97.0004, 0.965002, 1.25613e-07, 0.0000000E+000, 0.108175
 936, 98.0004, 0.965001, 5.19441e-08, 0.0000000E+000, 0.108008
 948, 99.0004, 0.965, 1.965e-08, 0.0000000E+000, 0.107935
 960, 100, 0.965, 6.74893e-09, 0.0000000E+000, 0.107906
 972, 101, 0.965, 2.08746e-09, 0.0000000E+000, 0.107895
 984, 102, 0.965, 5.76366e-10, 0.0000000E+000, 0.107892
 996, 103, 0.965, 1.40723e-10, 0.0000000E+000, 0.107891
 1008, 104, 0.965, 3.00736e-11, 0.0000000E+000, 0.10789
 1020, 105, 0.965, 5.56399e-12, 0.0000000E+000, 0.10789
 1032, 106, 0.965, 8.80702e-13, 0.0000000E+000, 0.10789
 1044, 107, 0.965, 1.17755e-13, 0.0000000E+000, 0.10789
 1056, 108, 0.965, 1.31184e-14, 0.0000000E+000, 0.10789
 1068, 109, 0.965, 1.19987e-15, 0.0000000E+000, 0.10789
 1080, 110, 0.965, 8.86853e-17, 0.0000000E+000, 0.10789
 1092, 111, 0.965, 5.20756e-18, 0.0000000E+000, 0.10789
 1104, 112, 0.965, 2.38524e-19, 0.0000000E+000, 0.10789
 1116, 113, 0.965, 8.35617e-21, 0.0000000E+000, 0.10789
 1128, 114, 0.965, 2.19227e-22, 0.0000000E+000, 0.10789
 1140, 115, 0.965, 4.21071e-24, 0.0000000E+000, 0.10789
 1152, 116, 0.965, 5.77881e-26, 0.0000000E+000, 0.10789
 1164, 117, 0.965, 5.52112e-28, 0.0000000E+000, 0.10789
 1176, 118, 0.965, 3.57098e-30, 0.0000000E+000, 0.10789
 1188, 119, 0.965, 1.51746e-32, 0.0000000E+000, 0.10789
 1200, 120, 0.965, 4.10284e-35, 0.0000000E+000, 0.10789
 1212, 121, 0.965, 6.81979e-38, 0.0000000E+000, 0.10789
 1224, 122, 0.965, 0.0000000E+000, 1.51196e-38, 0.10789
 1236, 123, 0.965, 0.0000000E+000, 2.06875e-38, 0.10789
 1248, 124, 0.965, 0.0000000E+000, 2.82613e-38, 0.10789
 1260, 125, 0.965, 0.0000000E+000, 3.85474e-38, 0.10789
 1272, 126, 0.965, 0.0000000E+000, 5.24955e-38, 0.10789
 1284, 127, 0.965, 0.0000000E+000, 7.13805e-38, 0.10789
 1296, 128, 0.965, 0.0000000E+000, 9.69106e-38, 0.10789
 1308, 129, 0.965, 0.0000000E+000, 1.31372e-37, 0.10789
 1320, 130, 0.965, 0.0000000E+000, 1.77819e-37, 0.10789
 1332, 131, 0.965, 0.0000000E+000, 2.40327e-37, 0.10789
 1344, 132, 0.965, 0.0000000E+000, 3.24327e-37, 0.10789
 1356, 133, 0.965, 0.0000000E+000, 4.3704e-37, 0.10789
 1368, 134, 0.965, 0.0000000E+000, 5.88062e-37, 0.10789
 1380, 135, 0.965, 0.0000000E+000, 7.90121e-37, 0.10789
 1392, 136, 0.965, 0.0000000E+000, 1.06008e-36, 0.10789
 1404, 137, 0.965, 0.0000000E+000, 1.42023e-36, 0.10789
 1416, 138, 0.965, 0.0000000E+000, 1.90003e-36, 0.10789
 1428, 139, 0.965, 0.0000000E+000, 2.53834e-36, 0.10789
 1440, 140, 0.965, 0.0000000E+000, 3.38634e-36, 0.10789
 1452, 141, 0.965, 0.0000000E+000, 4.51136e-36, 0.10789
 1464, 142, 0.965, 0.0000000E+000, 6.00182e-36, 0.10789
 1476, 143, 0.965, 0.0000000E+000, 7.97377e-36, 0.10789
 1488, 144, 0.965, 0.0000000E+000, 1.05792e-35, 0.10789
 1500, 145, 0.965, 0.0000000E+000, 1.4017e-35, 0.10789
 1512, 146, 0.965, 0.0000000E+000, 1.85469e-35, 0.10789
 1524, 147, 0.965, 0.0000000E+000, 2.45082e-35, 0.10789
 1536, 148, 0.965, 0.0000000E+000, 3.23427e-35, 0.10789
 1548, 149, 0.965, 0.0000000E+000, 4.26255e-35, 0.10789
 1560, 150, 0.965, 0.0000000E+000, 5.61044e-35, 0.10789
 1572, 151, 0.965, 0.0000000E+000, 7.37499e-35, 0.10789
 1584, 152, 0.965, 0.0000000E+000, 9.68205e-35, 0.10789
 1596, 153, 0.965, 0.0000000E+000, 1.26946e-34, 0.10789
 1608, 154, 0.965, 0.0000000E+000, 1.66233e-34, 0.10789
 1620, 155, 0.965, 0.0000000E+000, 2.17406e-34, 0.10789
 1632, 156, 0.965, 0.0000000E+000, 2.83976e-34, 0.10789
 1644, 157, 0.965, 0.0000000E+000, 3.70469e-34, 0.10789
 1656, 158, 0.965, 1.20678e-38, 4.82711e-34, 0.10789
 1668, 159, 0.965, 1.57047e-38, 6.28189e-34, 0.10789
 1680, 160, 0.965, 2.04129e-38, 8.16516e-34, 0.10789
 1692, 161, 0.965, 2.65006e-38, 1.06002e-33, 0.10789
 1704, 162, 0.965, 3.43625e-38, 1.3745e-33, 0.10789
 1716, 163, 0.965, 4.45037e-38, 1.78015e-33, 0.10789
 1728, 164, 0.965, 5.75697e-38, 2.30279e-33, 0.10789
 1740, 165, 0.965, 7.43844e-38, 2.97538e-33, 0.10789
 1752, 166, 0.965, 9.59981e-38, 3.83992e-33, 0.10789
 1764, 167, 0.965, 1.23749e-37, 4.94994e-33, 0.10789
 1776, 168, 0.965, 1.59337e-37, 6.3735e-33, 0.10789
 1788, 169, 0.965, 2.04927e-37, 8.19707e-33, 0.10789
 1800, 170, 0.965, 2.63261e-37, 1.05304e-32, 0.10789
 1812, 171, 0.965, 3.37819e-37, 1.35128e-32, 0.10789
 1824, 172, 0.965, 4.33008e-37, 1.73203e-32, 0.10789
 1836, 173, 0.965, 5.54401e-37, 2.2176e-32, 0.10789
 1848, 174, 0.965, 7.09042e-37, 2.83617e-32, 0.10789
 1860, 175, 0.965, 9.05822e-37, 3.62329e-32, 0.10789
 1872, 176, 0.965, 1.15595e-36, 4.62381e-32, 0.10789
 1884, 177, 0.965, 1.47356e-36, 5.89423e-32, 0.10789
 1896, 178, 0.965, 1.87641e-36, 7.50563e-32, 0.10789
 1908, 179, 0.965, 2.38683e-36, 9.54734e-32, 0.10789
 1920, 180, 0.965, 3.03289e-36, 1.21316e-31, 0.10789
 1932, 181, 0.965, 3.84975e-36, 1.5399e-31, 0.10789
 1944, 182, 0.965, 4.8815e-36, 1.9526e-31, 0.10789
 1956, 183, 0.965, 6.18332e-36, 2.47333e-31, 0.10789
 1968, 184, 0.965, 7.82423e-36, 3.12969e-31, 0.10789
 1980, 185, 0.965, 9.89042e-36, 3.95617e-31, 0.10789
 1992, 186, 0.965, 1.24895e-35, 4.9958e-31, 0.10789
 2004, 187, 0.965, 1.57556e-35, 6.30223e-31, 0.10789
 2016, 188, 0.965, 1.98558e-35, 7.9423e-31, 0.10789
 2028, 189, 0.965, 2.49979e-35, 9.99917e-31, 0.10789
 2040, 190, 0.965, 3.14405e-35, 1.25762e-30, 0.10789
 2052, 191, 0.965, 3.95044e-35, 1.58018e-30, 0.10789
 2064, 192, 0.965, 4.95879e-35, 1.98352e-30, 0.10789
 2076, 193, 0.965, 6.21845e-35, 2.48738e-30, 0.10789
 2088, 194, 0.965, 7.79054e-35, 3.11621e-30, 0.10789
 2100, 195, 0.965, 9.75067e-35, 3.90027e-30, 0.10789
 2112, 196, 0.965, 1.21923e-34, 4.87693e-30, 0.10789
 2124, 197, 0.965, 1.52309e-34, 6.09236e-30, 0.10789
 2136, 198, 0.965, 1.90088e-34, 7.60351e-30, 0.10789
 2148, 199, 0.965, 2.37015e-34, 9.48059e-30, 0.10789
 2160, 200, 0.965, 2.95251e-34, 1.181e-29, 0.10789
 2172, 201, 0.965, 3.67456e-34, 1.46982e-29, 0.10789
 2184, 202, 0.965, 4.56897e-34, 1.82759e-29, 0.10789
 2196, 203, 0.965, 5.6759e-34, 2.27036e-29, 0.10789
 2208, 204, 0.965, 7.0446e-34, 2.81784e-29, 0.10789
 2220, 205, 0.965, 8.73545e-34, 3.49418e-29, 0.10789
 2232, 206, 0.965, 1.08224e-33, 4.32896e-29, 0.10789
 2244, 207, 0.965, 1.3396e-33, 5.3584e-29, 0.10789
 2256, 208, 0.965, 1.65669e-33, 6.62677e-29, 0.10789
 2268, 209, 0.965, 2.04703e-33, 8.18814e-29, 0.10789
 2280, 210, 0.965, 2.52713e-33, 1.01085e-28, 0.10789
 2292, 211, 0.965, 3.11712e-33, 1.24685e-28, 0.10789
 2304, 212, 0.965, 3.84152e-33, 1.53661e-28, 0.10789
 2316, 213, 0.965, 4.7302e-33, 1.89208e-28, 0.10789
 2328, 214, 0.965, 5.81948e-33, 2.32779e-28, 0.10789
 2340, 215, 0.965, 7.15354e-33, 2.86141e-28, 0.10789
 2352, 216, 0.965, 8.78599e-33, 3.5144e-28, 0.10789
 2364, 217, 0.965, 1.07819e-32, 4.31277e-28, 0.10789
 2376, 218, 0.965, 1.32203e-32, 5.2881e-28, 0.10789
 2388, 219, 0.965, 1.61966e-32, 6.47864e-28, 0.10789
 2400, 220, 0.965, 1.98267e-32, 7.93067e-28, 0.10789
 2412, 221, 0.965, 2.42505e-32, 9.7002e-28, 0.10789
 2424, 222, 0.965, 2.96372e-32, 1.18549e-27, 0.10789
 2436, 223, 0.965, 3.61913e-32, 1.44765e-27, 0.10789
 2448, 224, 0.965, 4.41592e-32, 1.76637e-27, 0.10789
 2460, 225, 0.965, 5.38383e-32, 2.15353e-27, 0.10789
 2472, 226, 0.965, 6.55868e-32, 2.62347e-27, 0.10789
 2484, 227, 0.965, 7.98361e-32, 3.19344e-27, 0.10789
 2496, 228, 0.965, 9.71049e-32, 3.8842e-27, 0.10789
 2508, 229, 0.965, 1.18017e-31, 4.72067e-27, 0.10789
 2520, 230, 0.965, 1.43321e-31, 5.73285e-27, 0.10789
 2532, 231, 0.965, 1.73917e-31, 6.95668e-27, 0.10789
 2544, 232, 0.965, 2.10883e-31, 8.43531e-27, 0.10789
 2556, 233, 0.965, 2.55511e-31, 1.02204e-26, 0.10789
 2568, 234, 0.965, 3.09349e-31, 1.2374e-26, 0.10789
 2580, 235, 0.965, 3.7425e-31, 1.497e-26, 0.10789
 2592, 236, 0.965, 4.52428e-31, 1.80971e-26, 0.10789
 2604, 237, 0.965, 5.4653e-31, 2.18612e-26, 0.10789
 2616, 238, 0.965, 6.59717e-31, 2.63887e-26, 0.10789
 2628, 239, 0.965, 7.9576e-31, 3.18304e-26, 0.10789
 2640, 240, 0.965, 9.59156e-31, 3.83662e-26, 0.10789
 2652, 241, 0.965, 1.15526e-30, 4.62105e-26, 0.10789
 2664, 242, 0.965, 1.39046e-30, 5.56184e-26, 0.10789
 2676, 243, 0.965, 1.67234e-30, 6.68936e-26, 0.10789
 2688, 244, 0.965, 2.00993e-30, 8.03972e-26, 0.10789
 2700, 245, 0.965, 2.41395e-30, 9.65581e-26, 0.10789
 2712, 246, 0.965, 2.89714e-30, 1.15886e-25, 0.10789
 2724, 247, 0.965, 3.47461e-30, 1.38985e-25, 0.10789
 2736, 248, 0.965, 4.16428e-30, 1.66571e-25, 0.10789
 2748, 249, 0.965, 4.98739e-30, 1.99495e-25, 0.10789
 2760, 250, 0.965, 5.96906e-30, 2.38762e-25, 0.10789
 2772, 251, 0.965, 7.13907e-30, 2.85563e-25, 0.10789
 2784, 252, 0.965, 8.53259e-30, 3.41303e-25, 0.10789
 2796, 253, 0.965, 1.01912e-29, 4.07648e-25, 0.10789
 2808, 254, 0.965, 1.2164e-29, 4.86562e-25, 0.10789
 2820, 255, 0.965, 1.45091e-29, 5.80362e-25, 0.10789
 2832, 256, 0.965, 1.72946e-29, 6.91785e-25, 0.10789
 2844, 257, 0.965, 2.06013e-29, 8.24053e-25, 0.10789
 2856, 258, 0.965, 2.45241e-29, 9.80964e-25, 0.10789
 2868, 259, 0.965, 2.91747e-29, 1.16699e-24, 0.10789
 2880, 260, 0.965, 3.46846e-29, 1.38739e-24, 0.10789
 2892, 261, 0.965, 4.12084e-29, 1.64834e-24, 0.10789
 2904, 262, 0.965, 4.89278e-29, 1.95711e-24, 0.10789
 2916, 263, 0.965, 5.8056e-29, 2.32224e-24, 0.10789
 2928, 264, 0.965, 6.88433e-29, 2.75373e-24, 0.10789
 2940, 265, 0.965, 8.15834e-29, 3.26333e-24, 0.10789
 2952, 266, 0.965, 9.66202e-29, 3.86481e-24, 0.10789
 2964, 267, 0.965, 1.14357e-28, 4.57427e-24, 0.10789
 2976, 268, 0.965, 1.35265e-28, 5.4106e-24, 0.10789
 2988, 269, 0.965, 1.59897e-28, 6.39588e-24, 0.10789
 3000, 270, 0.965, 1.88898e-28, 7.55592e-24, 0.10789
 3012, 271, 0.965, 2.23022e-28, 8.92089e-24, 0.10789
 3024, 272, 0.965, 2.63151e-28, 1.0526e-23, 0.10789
 3036, 273, 0.965, 3.10312e-28, 1.24125e-23, 0.10789
 3048, 274, 0.965, 3.65704e-28, 1.46282e-23, 0.10789
 3060, 275, 0.965, 4.30726e-28, 1.7229e-23, 0.10789
 3072, 276, 0.965, 5.07006e-28, 2.02803e-23, 0.10789
 3084, 277, 0.965, 5.96442e-28, 2.38577e-23, 0.10789
 3096, 278, 0.965, 7.01241e-28, 2.80497e-23, 0.10789
 3108, 279, 0.965, 8.23971e-28, 3.29588e-23, 0.10789
 3120, 280, 0.965, 9.67616e-28, 3.87046e-23, 0.10789
 3132, 281, 0.965, 1.13564e-27, 4.54258e-23, 0.10789
 3144, 282, 0.965, 1.33208e-27, 5.32833e-23, 0.10789
 3156, 283, 0.965, 1.5616e-27, 6.24641e-23, 0.10789
 3168, 284, 0.965, 1.82963e-27, 7.3185e-23, 0.10789
 3180, 285, 0.965, 2.14243e-27, 8.56974e-23, 0.10789
 3192, 286, 0.965, 2.50731e-27, 1.00292e-22, 0.10789
 3204, 287, 0.965, 2.93267e-27, 1.17307e-22, 0.10789
 3216, 288, 0.965, 3.42829e-27, 1.37132e-22, 0.10789
 3228, 289, 0.965, 4.00543e-27, 1.60217e-22, 0.10789
 3240, 290, 0.965, 4.67716e-27, 1.87086e-22, 0.10789
 3252, 291, 0.965, 5.45853e-27, 2.18341e-22, 0.10789
 3264, 292, 0.965, 6.36696e-27, 2.54678e-22, 0.10789
 3276, 293, 0.965, 7.42253e-27, 2.96901e-22, 0.10789
 3288, 294, 0.965, 8.64843e-27, 3.45937e-22, 0.10789
 3300, 295, 0.965, 1.00714e-26, 4.02855e-22, 0.10789
 3312, 296, 0.965, 1.17222e-26, 4.68886e-22, 0.10789
 3324, 297, 0.965, 1.36363e-26, 5.4545e-22, 0.10789
 3336, 298, 0.965, 1.58545e-26, 6.34181e-22, 0.10789
 3348, 299, 0.965, 1.84239e-26, 7.36956e-22, 0.10789
 3360, 300, 0.965, 2.13985e-26, 8.5594e-22, 0.10789
 3372, 301, 0.965, 2.48404e-26, 9.93615e-22, 0.10789
 3384, 302, 0.965, 2.88209e-26, 1.15284e-21, 0.10789
 3396, 303, 0.965, 3.34221e-26, 1.33688e-21, 0.10789
 3408, 304, 0.965, 3.87379e-26, 1.54952e-21, 0.10789
 3420, 305, 0.965, 4.48763e-26, 1.79505e-21, 0.10789
 3432, 306, 0.965, 5.19609e-26, 2.07844e-21, 0.10789
 3444, 307, 0.965, 6.01337e-26, 2.40535e-21, 0.10789
 3456, 308, 0.965, 6.95569e-26, 2.78228e-21, 0.10789
 3468, 309, 0.965, 8.04166e-26, 3.21666e-21, 0.10789
 3480, 310, 0.965, 9.29255e-26, 3.71702e-21, 0.10789
 3492, 311, 0.965, 1.07327e-25, 4.29308e-21, 0.10789
 3504, 312, 0.965, 1.23899e-25, 4.95598e-21, 0.10789
 3516, 313, 0.965, 1.42961e-25, 5.71843e-21, 0.10789
 3528, 314, 0.965, 1.64874e-25, 6.59497e-21, 0.10789
 3540, 315, 0.965, 1.90055e-25, 7.60218e-21, 0.10789
 3552, 316, 0.965, 2.18975e-25, 8.75899e-21, 0.10789
 3564, 317, 0.965, 2.52175e-25, 1.0087e-20, 0.10789
 3576, 318, 0.965, 2.90269e-25, 1.16108e-20, 0.10789
 3588, 319, 0.965, 3.3396e-25, 1.33584e-20, 0.10789
 3600, 320, 0.965, 3.84045e-25, 1.53618e-20, 0.10789
 3612, 321, 0.965, 4.41435e-25, 1.76574e-20, 0.10789
 3624, 322, 0.965, 5.07162e-25, 2.02865e-20, 0.10789
 3636, 323, 0.965, 5.82406e-25, 2.32962e-20, 0.10789
 3648, 324, 0.965, 6.68502e-25, 2.67401e-20, 0.10789
 3660, 325, 0.965, 7.66972e-25, 3.06789e-20, 0.10789
 3672, 326, 0.965, 8.79544e-25, 3.51817e-20, 0.10789
 3684, 327, 0.965, 1.00818e-24, 4.03271e-20, 0.10789
 3696, 328, 0.965, 1.1551e-24, 4.6204e-20, 0.10789
 3708, 329, 0.965, 1.32283e-24, 5.29134e-20, 0.10789
 3720, 330, 0.965, 1.51424e-24, 6.05698e-20, 0.10789
 3732, 331, 0.965, 1.73258e-24, 6.93031e-20, 0.10789
 3744, 332, 0.965, 1.98151e-24, 7.92603e-20, 0.10789
 3756, 333, 0.965, 2.2652e-24, 9.0608e-20, 0.10789
 3768, 334, 0.965, 2.58837e-24, 1.03535e-19, 0.10789
 3780, 335, 0.965, 2.95634e-24, 1.18254e-19, 0.10789
 3792, 336, 0.965, 3.37516e-24, 1.35006e-19, 0.10789
 3804, 337, 0.965, 3.85164e-24, 1.54065e-19, 0.10789
 3816, 338, 0.965, 4.39348e-24, 1.75739e-19, 0.10789
 3828, 339, 0.965, 5.00939e-24, 2.00375e-19, 0.10789
 3840, 340, 0.965, 5.7092e-24, 2.28368e-19, 0.10789
 3852, 341, 0.965, 6.504e-24, 2.6016e-19, 0.10789
 3864, 342, 0.965, 7.40631e-24, 2.96253e-19, 0.10789
 3876, 343, 0.965, 8.43025e-24, 3.3721e-19, 0.10789
 3888, 344, 0.965, 9.59172e-24, 3.83669e-19, 0.10789
 3900, 345, 0.965, 1.09087e-23, 4.36346e-19, 0.10789
 3912, 346, 0.965, 1.24013e-23, 4.9605e-19, 0.10789
 3924, 347, 0.965, 1.40922e-23, 5.6369e-19, 0.10789
 3936, 348, 0.965, 1.60072e-23, 6.40289e-19, 0.10789
 3948, 349, 0.965, 1.8175e-23, 7.27e-19, 0.10789
 3960, 350, 0.965, 2.06279e-23, 8.25116e-19, 0.10789
 3972, 351, 0.965, 2.34024e-23, 9.36095e-19, 0.10789
 3984, 352, 0.965, 2.65393e-23, 1.06157e-18, 0.10789
 3996, 353, 0.965, 3.00846e-23, 1.20338e-18, 0.10789
 4008, 354, 0.965, 3.40899e-23, 1.3636e-18, 0.10789
 4020, 355, 0.965, 3.8613e-23, 1.54452e-18, 0.10789
 4032, 356, 0.965, 4.3719e-23, 1.74876e-18, 0.10789
 4044, 357, 0.965, 4.94807e-23, 1.97923e-18, 0.10789
 4056, 358, 0.965, 5.59797e-23, 2.23919e-18, 0.10789
 4068, 359, 0.965, 6.33076e-23, 2.53231e-18, 0.10789
 4080, 360, 0.965, 7.1567e-23, 2.86268e-18, 0.10789
 4092, 361, 0.965, 8.08726e-23, 3.2349e-18, 0.10789
 4104, 362, 0.965, 9.1353e-23, 3.65412e-18, 0.10789
 4116, 363, 0.965, 1.03152e-22, 4.12608e-18, 0.10789
 4128, 364, 0.965, 1.16431e-22, 4.65723e-18, 0.10789
 4140, 365, 0.965, 1.31369e-22, 5.25475e-18, 0.10789
 4152, 366, 0.965, 1.48167e-22, 5.9267e-18, 0.10789
 4164, 367, 0.965, 1.67051e-22, 6.68206e-18, 0.10789
 4176, 368, 0.965, 1.88272e-22, 7.53087e-18, 0.10789
 4188, 369, 0.965, 2.12108e-22, 8.48434e-18, 0.10789
 4200, 370, 0.965, 2.38875e-22, 9.55499e-18, 0.10789
 4212, 371, 0.965, 2.68919e-22, 1.07568e-17, 0.10789
 4224, 372, 0.965, 3.02632e-22, 1.21053e-17, 0.10789
 4236, 373, 0.965, 3.40446e-22, 1.36178e-17, 0.10789
 4248, 374, 0.965, 3.82845e-22, 1.53138e-17, 0.10789
 4260, 375, 0.965, 4.3037e-22, 1.72148e-17, 0.10789
 4272, 376, 0.965, 4.83619e-22, 1.93448e-17, 0.10789
 4284, 377, 0.965, 5.43262e-22, 2.17305e-17, 0.10789
 4296, 378, 0.965, 6.10042e-22, 2.44017e-17, 0.10789
 4308, 379, 0.965, 6.84788e-22, 2.73915e-17, 0.10789
 4320, 380, 0.965, 7.6842e-22, 3.07368e-17, 0.10789
 4332, 381, 0.965, 8.61962e-22, 3.44785e-17, 0.10789
 4344, 382, 0.965, 9.66553e-22, 3.86621e-17, 0.10789
 4356, 383, 0.965, 1.08346e-21, 4.33382e-17, 0.10789
 4368, 384, 0.965, 1.21408e-21, 4.8563e-17, 0.10789
 4380, 385, 0.965, 1.35997e-21, 5.43989e-17, 0.10789
 4392, 386, 0.965, 1.52288e-21, 6.09152e-17, 0.10789
 4404, 387, 0.965, 1.70471e-21, 6.81886e-17, 0.10789
 4416, 388, 0.965, 1.90761e-21, 7.63044e-17, 0.10789
 4428, 389, 0.965, 2.13393e-21, 8.53572e-17, 0.10789
 4440, 390, 0.965, 2.38629e-21, 9.54517e-17, 0.10789
 4452, 391, 0.965, 2.6676e-21, 1.06704e-16, 0.10789
 4464, 392, 0.965, 2.98107e-21, 1.19243e-16, 0.10789
 4476, 393, 0.965, 3.33027e-21, 1.33211e-16, 0.10789
 4488, 394, 0.965, 3.71914e-21, 1.48766e-16, 0.10789
 4500, 395, 0.965, 4.15204e-21, 1.66082e-16, 0.10789
 4512, 396, 0.965, 4.63381e-21, 1.85352e-16, 0.10789
 4524, 397, 0.965, 5.16978e-21, 2.06791e-16, 0.10789
 4536, 398, 0.965, 5.76587e-21, 2.30635e-16, 0.10789
 4548, 399, 0.965, 6.42859e-21, 2.57144e-16, 0.10789
 4560, 400, 0.965, 7.16518e-21, 2.86607e-16, 0.10789
 4572, 401, 0.965, 7.98359e-21, 3.19344e-16, 0.10789
 4584, 402, 0.965, 8.89263e-21, 3.55705e-16, 0.10789
 4596, 403, 0.965, 9.90202e-21, 3.96081e-16, 0.10789
 4608, 404, 0.965, 1.10225e-20, 4.40899e-16, 0.10789
 4620, 405, 0.965, 1.22659e-20, 4.90634e-16, 0.10789
 4632, 406, 0.965, 1.36452e-20, 5.45807e-16, 0.10789
 4644, 407, 0.965, 1.51749e-20, 6.06995e-16, 0.10789
 4656, 408, 0.965, 1.68708e-20, 6.74831e-16, 0.10789
 4668, 409, 0.965, 1.87504e-20, 7.50015e-16, 0.10789
 4680, 410, 0.965, 2.0833e-20, 8.33318e-16, 0.10789
 4692, 411, 0.965, 2.31397e-20, 9.25589e-16, 0.10789
 4704, 412, 0.965, 2.5694e-20, 1.02776e-15, 0.10789
 4716, 413, 0.965, 2.85216e-20, 1.14086e-15, 0.10789
 4728, 414, 0.965, 3.16507e-20, 1.26603e-15, 0.10789
 4740, 415, 0.965, 3.51124e-20, 1.4045e-15, 0.10789
 4752, 416, 0.965, 3.89411e-20, 1.55764e-15, 0.10789
 4764, 417, 0.965, 4.31743e-20, 1.72697e-15, 0.10789
 4776, 418, 0.965, 4.78534e-20, 1.91414e-15, 0.10789
 4788, 419, 0.965, 5.30238e-20, 2.12095e-15, 0.10789
 4800, 420, 0.965, 5.87355e-20, 2.34942e-15, 0.10789
 4812, 421, 0.965, 6.50432e-20, 2.60173e-15, 0.10789
 4824, 422, 0.965, 7.20073e-20, 2.88029e-15, 0.10789
 4836, 423, 0.965, 7.96936e-20, 3.18774e-15, 0.10789
 4848, 424, 0.965, 8.81748e-20, 3.52699e-15, 0.10789
 4860, 425, 0.965, 9.75303e-20, 3.90121e-15, 0.10789
 4872, 426, 0.965, 1.07847e-19, 4.31389e-15, 0.10789
 4884, 427, 0.965, 1.19221e-19, 4.76886e-15, 0.10789
 4896, 428, 0.965, 1.31757e-19, 5.2703e-15, 0.10789
 4908, 429, 0.965, 1.4557e-19, 5.8228e-15, 0.10789
 4920, 430, 0.965, 1.60785e-19, 6.43141e-15, 0.10789
 4932, 431, 0.965, 1.77541e-19, 7.10162e-15, 0.10789
 4944, 432, 0.965, 1.95987e-19, 7.83947e-15, 0.10789
 4956, 433, 0.965, 2.16289e-19, 8.65156e-15, 0.10789
 4968, 434, 0.965, 2.38628e-19, 9.54511e-15, 0.10789
 4980, 435, 0.965, 2.63201e-19, 1.0528e-14, 0.10789
 4992, 436, 0.965, 2.90224e-19, 1.1609e-14, 0.10789
 5004, 437, 0.965, 3.19933e-19, 1.27973e-14, 0.10789
 5016, 438, 0.965, 3.52588e-19, 1.41035e-14, 0.10789
 5028, 439, 0.965, 3.88469e-19, 1.55387e-14, 0.10789
 5040, 440, 0.965, 4.27885e-19, 1.71154e-14, 0.10789
 5052, 441, 0.965, 4.71173e-19, 1.88469e-14, 0.10789
 5064, 442, 0.965, 5.187e-19, 2.0748e-14, 0.10789
 5076, 443, 0.965, 5.70868e-19, 2.28347e-14, 0.10789
 5088, 444, 0.965, 6.28116e-19, 2.51246e-14, 0.10789
 5100, 445, 0.965, 6.9092e-19, 2.76368e-14, 0.10789
 5112, 446, 0.965, 7.59802e-19, 3.03921e-14, 0.10789
 5124, 447, 0.965, 8.35332e-19, 3.34133e-14, 0.10789
 5136, 448, 0.965, 9.18128e-19, 3.67251e-14, 0.10789
 5148, 449, 0.965, 1.00887e-18, 4.03546e-14, 0.10789
 5160, 450, 0.965, 1.10828e-18, 4.43313e-14, 0.10789
 5172, 451, 0.965, 1.21718e-18, 4.86873e-14, 0.10789
 5184, 452, 0.965, 1.33643e-18, 5.34574e-14, 0.10789
 5196, 453, 0.965, 1.46699e-18, 5.86797e-14, 0.10789
 5208, 454, 0.965, 1.60989e-18, 6.43958e-14, 0.10789
 5220, 455, 0.965, 1.76626e-18, 7.06506e-14, 0.10789
 5232, 456, 0.965, 1.93733e-18, 7.74932e-14, 0.10789
 5244, 457, 0.965, 2.12443e-18, 8.4977e-14, 0.10789
 5256, 458, 0.965, 2.329e-18, 9.31601e-14, 0.10789
 5268, 459, 0.965, 2.55264e-18, 1.02105e-13, 0.10789
 5280, 460, 0.965, 2.79705e-18, 1.11882e-13, 0.10789
 5292, 461, 0.965, 3.06409e-18, 1.22564e-13, 0.10789
 5304, 462, 0.965, 3.35581e-18, 1.34232e-13, 0.10789
 5316, 463, 0.965, 3.67438e-18, 1.46975e-13, 0.10789
 5328, 464, 0.965, 4.02221e-18, 1.60888e-13, 0.10789
 5340, 465, 0.965, 4.40189e-18, 1.76076e-13, 0.10789
 5352, 466, 0.965, 4.81623e-18, 1.92649e-13, 0.10789
 5364, 467, 0.965, 5.26829e-18, 2.10732e-13, 0.10789
 5376, 468, 0.965, 5.76139e-18, 2.30456e-13, 0.10789
 5388, 469, 0.965, 6.29912e-18, 2.51965e-13, 0.10789
 5400, 470, 0.965, 6.88539e-18, 2.75416e-13, 0.10789
 5412, 471, 0.965, 7.52442e-18, 3.00977e-13, 0.10789
 5424, 472, 0.965, 8.2208e-18, 3.28832e-13, 0.10789
 5436, 473, 0.965, 8.9795e-18, 3.5918e-13, 0.10789
 5448, 474, 0.965, 9.8059e-18, 3.92236e-13, 0.10789
 5460, 475, 0.965, 1.07058e-17, 4.28234e-13, 0.10789
 5472, 476, 0.965, 1.16856e-17, 4.67425e-13, 0.10789
 5484, 477, 0.965, 1.27521e-17, 5.10085e-13, 0.10789
 5496, 478, 0.965, 1.39127e-17, 5.56508e-13, 0.10789
 5508, 479, 0.965, 1.51754e-17, 6.07015e-13, 0.10789
 5520, 480, 0.965, 1.65489e-17, 6.61954e-13, 0.10789
 5532, 481, 0.965, 1.80425e-17, 7.217e-13, 0.10789
 5544, 482, 0.965, 1.96664e-17, 7.86657e-13, 0.10789
 5556, 483, 0.965, 2.14317e-17, 8.57266e-13, 0.10789
 5568, 484, 0.965, 2.335e-17, 9.34e-13, 0.10789
 5580, 485, 0.965, 2.54343e-17, 1.01737e-12, 0.10789
 5592, 486, 0.965, 2.76985e-17, 1.10794e-12, 0.10789
 5604, 487, 0.965, 3.01574e-17, 1.2063e-12, 0.10789
 5616, 488, 0.965, 3.28273e-17, 1.31309e-12, 0.10789
 5628, 489, 0.965, 3.57255e-17, 1.42902e-12, 0.10789
 5640, 490, 0.965, 3.88711e-17, 1.55484e-12, 0.10789
 5652, 491, 0.965, 4.22843e-17, 1.69137e-12, 0.10789
 5664, 492, 0.965, 4.5987e-17, 1.83948e-12, 0.10789
 5676, 493, 0.965, 5.00031e-17, 2.00012e-12, 0.10789
 5688, 494, 0.965, 5.4358e-17, 2.17432e-12, 0.10789
 5700, 495, 0.965, 5.90793e-17, 2.36317e-12, 0.10789
 5712, 496, 0.965, 6.41968e-17, 2.56787e-12, 0.10789
 5724, 497, 0.965, 6.97425e-17, 2.7897e-12, 0.10789
 5736, 498, 0.965, 7.57511e-17, 3.03004e-12, 0.10789
 5748, 499, 0.965, 8.22596e-17, 3.29039e-12, 0.10789
 5760, 500, 0.965, 8.93084e-17, 3.57234e-12, 0.10789
 5772, 501, 0.965, 9.69405e-17, 3.87762e-12, 0.10789
 5784, 502, 0.965, 1.05203e-16, 4.20811e-12, 0.10789
 5796, 503, 0.965, 1.14145e-16, 4.5658e-12, 0.10789
 5808, 504, 0.965, 1.23821e-16, 4.95285e-12, 0.10789
 5820, 505, 0.965, 1.3429e-16, 5.37159e-12, 0.10789
 5832, 506, 0.965, 1.45613e-16, 5.82452e-12, 0.10789
 5844, 507, 0.965, 1.57858e-16, 6.31433e-12, 0.10789
 5856, 508, 0.965, 1.71098e-16, 6.84392e-12, 0.10789
 5868, 509, 0.965, 1.8541e-16, 7.41639e-12, 0.10789
 5880, 510, 0.965, 2.00878e-16, 8.03511e-12, 0.10789
 5892, 511, 0.965, 2.17591e-16, 8.70366e-12, 0.10789
 5904, 512, 0.965, 2.35648e-16, 9.42591e-12, 0.10789
 5916, 513, 0.965, 2.55151e-16, 1.0206e-11, 0.10789
 5928, 514, 0.965, 2.76212e-16, 1.10485e-11, 0.10789
 5940, 515, 0.965, 2.98952e-16, 1.19581e-11, 0.10789
 5952, 516, 0.965, 3.23499e-16, 1.294e-11, 0.10789
 5964, 517, 0.965, 3.49991e-16, 1.39997e-11, 0.10789
 5976, 518, 0.965, 3.78578e-16, 1.51431e-11, 0.10789
 5988, 519, 0.965, 4.09419e-16, 1.63768e-11, 0.10789
 6000, 520, 0.965, 4.42684e-16, 1.77074e-11, 0.10789
 6012, 521, 0.965, 4.78558e-16, 1.91423e-11, 0.10789
 6024, 522, 0.965, 5.17238e-16, 2.06895e-11, 0.10789
 6036, 523, 0.965, 5.58936e-16, 2.23574e-11, 0.10789
 6048, 524, 0.965, 6.03877e-16, 2.41551e-11, 0.10789
 6060, 525, 0.965, 6.52305e-16, 2.60922e-11, 0.10789
 6072, 526, 0.965, 7.04481e-16, 2.81792e-11, 0.10789
 6084, 527, 0.965, 7.60684e-16, 3.04274e-11, 0.10789
 6096, 528, 0.965, 8.21213e-16, 3.28485e-11, 0.10789
 6108, 529, 0.965, 8.8639e-16, 3.54556e-11, 0.10789
 6120, 530, 0.965, 9.56558e-16, 3.82623e-11, 0.10789
 6132, 531, 0.965, 1.03208e-15, 4.12834e-11, 0.10789
 6144, 532, 0.965, 1.11336e-15, 4.45346e-11, 0.10789
 6156, 533, 0.965, 1.20082e-15, 4.80327e-11, 0.10789
 6168, 534, 0.965, 1.2949e-15, 5.1796e-11, 0.10789
 6180, 535, 0.965, 1.39609e-15, 5.58437e-11, 0.10789
 6192, 536, 0.965, 1.50491e-15, 6.01965e-11, 0.10789
 6204, 537, 0.965, 1.62191e-15, 6.48766e-11, 0.10789
 6216, 538, 0.965, 1.74769e-15, 6.99076e-11, 0.10789
 6228, 539, 0.965, 1.88287e-15, 7.53149e-11, 0.10789
 6240, 540, 0.965, 2.02814e-15, 8.11256e-11, 0.10789
 6252, 541, 0.965, 2.18422e-15, 8.73687e-11, 0.10789
 6264, 542, 0.965, 2.35188e-15, 9.4075e-11, 0.10789
 6276, 543, 0.965, 2.53195e-15, 1.01278e-10, 0.10789
 6288, 544, 0.965, 2.72531e-15, 1.09012e-10, 0.10789
 6300, 545, 0.965, 2.93291e-15, 1.17317e-10, 0.10789
 6312, 546, 0.965, 3.15577e-15, 1.26231e-10, 0.10789
 6324, 547, 0.965, 3.39495e-15, 1.35798e-10, 0.10789
 6336, 548, 0.965, 3.65161e-15, 1.46064e-10, 0.10789
 6348, 549, 0.965, 3.92697e-15, 1.57079e-10, 0.10789
 6360, 550, 0.965, 4.22235e-15, 1.68894e-10, 0.10789
 6372, 551, 0.965, 4.53916e-15, 1.81566e-10, 0.10789
 6384, 552, 0.965, 4.87888e-15, 1.95155e-10, 0.10789
 6396, 553, 0.965, 5.2431e-15, 2.09724e-10, 0.10789
 6408, 554, 0.965, 5.63354e-15, 2.25342e-10, 0.10789
 6420, 555, 0.965, 6.052e-15, 2.4208e-10, 0.10789
 6432, 556, 0.965, 6.50042e-15, 2.60017e-10, 0.10789
 6444, 557, 0.965, 6.98087e-15, 2.79235e-10, 0.10789
 6456, 558, 0.965, 7.49553e-15, 2.99821e-10, 0.10789
 6468, 559, 0.965, 8.04677e-15, 3.21871e-10, 0.10789
 6480, 560, 0.965, 8.63707e-15, 3.45483e-10, 0.10789
 6492, 561, 0.965, 9.26911e-15, 3.70764e-10, 0.10789
 6504, 562, 0.965, 9.94571e-15, 3.97828e-10, 0.10789
 6516, 563, 0.965, 1.06699e-14, 4.26796e-10, 0.10789
 6528, 564, 0.965, 1.14449e-14, 4.57796e-10, 0.10789
 6540, 565, 0.965, 1.22742e-14, 4.90966e-10, 0.10789
 6552, 566, 0.965, 1.31613e-14, 5.26451e-10, 0.10789
 6564, 567, 0.965, 1.41102e-14, 5.64407e-10, 0.10789
 6576, 568, 0.965, 1.5125e-14, 6.05e-10, 0.10789
 6588, 569, 0.965, 1.62101e-14, 6.48405e-10, 0.10789
 6600, 570, 0.965, 1.73702e-14, 6.9481e-10, 0.10789
 6612, 571, 0.965, 1.86104e-14, 7.44414e-10, 0.10789
 6624, 572, 0.965, 1.99357e-14, 7.97429e-10, 0.10789
 6636, 573, 0.965, 2.1352e-14, 8.54081e-10, 0.10789
 6648, 574, 0.965, 2.28653e-14, 9.1461e-10, 0.10789
 6660, 575, 0.965, 2.44818e-14, 9.7927e-10, 0.10789
 6672, 576, 0.965, 2.62083e-14, 1.04833e-09, 0.10789
 6684, 577, 0.965, 2.80522e-14, 1.12209e-09, 0.10789
 6696, 578, 0.965, 3.00209e-14, 1.20084e-09, 0.10789
 6708, 579, 0.965, 3.21227e-14, 1.28491e-09, 0.10789
 6720, 580, 0.965, 3.43662e-14, 1.37465e-09, 0.10789
 6732, 581, 0.965, 3.67606e-14, 1.47043e-09, 0.10789
 6744, 582, 0.965, 3.93157e-14, 1.57263e-09, 0.10789
 6756, 583, 0.965, 4.20417e-14, 1.68167e-09, 0.10789
 6768, 584, 0.965, 4.49497e-14, 1.79799e-09, 0.10789
 6780, 585, 0.965, 4.80513e-14, 1.92205e-09, 0.10789
 6792, 586, 0.965, 5.1359e-14, 2.05436e-09, 0.10789
 6804, 587, 0.965, 5.48859e-14, 2.19544e-09, 0.10789
 6816, 588, 0.965, 5.86459e-14, 2.34584e-09, 0.10789
 6828, 589, 0.965, 6.26539e-14, 2.50616e-09, 0.10789
 6840, 590, 0.965, 6.69255e-14, 2.67702e-09, 0.10789
 6852, 591, 0.965, 7.14775e-14, 2.8591e-09, 0.10789
 6864, 592, 0.965, 7.63275e-14, 3.0531e-09, 0.10789
 6876, 593, 0.965, 8.14942e-14, 3.25977e-09, 0.10789
 6888, 594, 0.965, 8.69974e-14, 3.4799e-09, 0.10789
 6900, 595, 0.965, 9.28584e-14, 3.71434e-09, 0.10789
 6912, 596, 0.965, 9.90993e-14, 3.96397e-09, 0.10789
 6924, 597, 0.965, 1.05744e-13, 4.22975e-09, 0.10789
 6936, 598, 0.965, 1.12817e-13, 4.51268e-09, 0.10789
 6948, 599, 0.965, 1.20346e-13, 4.81383e-09, 0.10789
 6960, 600, 0.965, 1.28358e-13, 5.1343e-09, 0.10789
 6972, 601, 0.965, 1.36883e-13, 5.47531e-09, 0.10789
 6984, 602, 0.965, 1.45953e-13, 5.8381e-09, 0.10789
 6996, 603, 0.965, 1.55601e-13, 6.22403e-09, 0.10789
 7008, 604, 0.965, 1.65862e-13, 6.63449e-09, 0.10789
 7020, 605, 0.965, 1.76775e-13, 7.071e-09, 0.10789
 7032, 606, 0.965, 1.88378e-13, 7.53513e-09, 0.10789
 7044, 607, 0.965, 2.00714e-13, 8.02857e-09, 0.10789
 7056, 608, 0.965, 2.13827e-13, 8.55309e-09, 0.10789
 7068, 609, 0.965, 2.27764e-13, 9.11057e-09, 0.10789
 7080, 610, 0.965, 2.42575e-13, 9.703e-09, 0.10789
 7092, 611, 0.965, 2.58312e-13, 1.03325e-08, 0.10789
 7104, 612, 0.965, 2.75031e-13, 1.10012e-08, 0.10789
 7116, 613, 0.965, 2.9279e-13, 1.17116e-08, 0.10789
 7128, 614, 0.965, 3.11653e-13, 1.24661e-08, 0.10789
 7140, 615, 0.965, 3.31684e-13, 1.32673e-08, 0.10789
 7152, 616, 0.965, 3.52952e-13, 1.41181e-08, 0.10789
 7164, 617, 0.965, 3.75533e-13, 1.50213e-08, 0.10789
 7176, 618, 0.965, 3.99502e-13, 1.59801e-08, 0.10789
 7188, 619, 0.965, 4.24942e-13, 1.69977e-08, 0.10789
 7200, 620, 0.965, 4.5194e-13, 1.80776e-08, 0.10789
 7212, 621, 0.965, 4.80587e-13, 1.92235e-08, 0.10789
 7224, 622, 0.965, 5.10979e-13, 2.04392e-08, 0.10789
 7236, 623, 0.965, 5.43219e-13, 2.17288e-08, 0.10789
 7248, 624, 0.965, 5.77415e-13, 2.30966e-08, 0.10789
 7260, 625, 0.965, 6.13679e-13, 2.45472e-08, 0.10789
 7272, 626, 0.965, 6.52133e-13, 2.60853e-08, 0.10789
 7284, 627, 0.965, 6.92903e-13, 2.77161e-08, 0.10789
 7296, 628, 0.965, 7.36123e-13, 2.94449e-08, 0.10789
 7308, 629, 0.965, 7.81933e-13, 3.12773e-08, 0.10789
 7320, 630, 0.965, 8.30484e-13, 3.32193e-08, 0.10789
 7332, 631, 0.965, 8.81931e-13, 3.52772e-08, 0.10789
 7344, 632, 0.965, 9.36441e-13, 3.74576e-08, 0.10789
 7356, 633, 0.965, 9.94189e-13, 3.97676e-08, 0.10789
 7368, 634, 0.965, 1.05536e-12, 4.22143e-08, 0.10789
 7380, 635, 0.965, 1.12014e-12, 4.48058e-08, 0.10789
 7392, 636, 0.965, 1.18875e-12, 4.75501e-08, 0.10789
 7404, 637, 0.965, 1.2614e-12, 5.04558e-08, 0.10789
 7416, 638, 0.965, 1.33831e-12, 5.35322e-08, 0.10789
 7428, 639, 0.965, 1.41972e-12, 5.67888e-08, 0.10789
 7440, 640, 0.965, 1.50589e-12, 6.02357e-08, 0.10789
 7452, 641, 0.965, 1.59709e-12, 6.38836e-08, 0.10789
 7464, 642, 0.965, 1.69359e-12, 6.77436e-08, 0.10789
 7476, 643, 0.965, 1.79569e-12, 7.18278e-08, 0.10789
 7488, 644, 0.965, 1.90371e-12, 7.61484e-08, 0.10789
 7500, 645, 0.965, 2.01797e-12, 8.07187e-08, 0.10789
 7512, 646, 0.965, 2.13881e-12, 8.55524e-08, 0.10789
 7524, 647, 0.965, 2.2666e-12, 9.06641e-08, 0.10789
 7536, 648, 0.965, 2.40173e-12, 9.60691e-08, 0.10789
 7548, 649, 0.965, 2.54459e-12, 1.01784e-07, 0.10789
 7560, 650, 0.965, 2.69561e-12, 1.07824e-07, 0.10789
 7572, 651, 0.965, 2.85524e-12, 1.1421e-07, 0.10789
 7584, 652, 0.965, 3.02394e-12, 1.20958e-07, 0.10789
 7596, 653, 0.965, 3.20222e-12, 1.28089e-07, 0.10789
 7608, 654, 0.965, 3.39059e-12, 1.35623e-07, 0.10789
 7620, 655, 0.965, 3.58959e-12, 1.43584e-07, 0.10789
 7632, 656, 0.965, 3.79981e-12, 1.51993e-07, 0.10789
 7644, 657, 0.965, 4.02185e-12, 1.60874e-07, 0.10789
 7656, 658, 0.965, 4.25635e-12, 1.70254e-07, 0.10789
 7668, 659, 0.965, 4.50397e-12, 1.80159e-07, 0.10789
 7680, 660, 0.965, 4.76541e-12, 1.90617e-07, 0.10789
 7692, 661, 0.965, 5.04143e-12, 2.01657e-07, 0.10789
 7704, 662, 0.965, 5.33279e-12, 2.13311e-07, 0.10789
 7716, 663, 0.965, 5.64031e-12, 2.25612e-07, 0.10789
 7728, 664, 0.965, 5.96485e-12, 2.38594e-07, 0.10789
 7740, 665, 0.965, 6.30731e-12, 2.52292e-07, 0.10789
 7752, 666, 0.965, 6.66864e-12, 2.66746e-07, 0.10789
 7764, 667, 0.965, 7.04984e-12, 2.81993e-07, 0.10789
 7776, 668, 0.965, 7.45194e-12, 2.98078e-07, 0.10789
 7788, 669, 0.965, 7.87605e-12, 3.15042e-07, 0.10789
 7800, 670, 0.965, 8.32333e-12, 3.32933e-07, 0.10789
 7812, 671, 0.965, 8.79497e-12, 3.51799e-07, 0.10789
 7824, 672, 0.965, 9.29226e-12, 3.7169e-07, 0.10789
 7836, 673, 0.965, 9.81652e-12, 3.92661e-07, 0.10789
 7848, 674, 0.965, 1.03692e-11, 4.14766e-07, 0.10789
 7860, 675, 0.965, 1.09516e-11, 4.38066e-07, 0.10789
 7872, 676, 0.965, 1.15655e-11, 4.62621e-07, 0.10789
 7884, 677, 0.965, 1.22124e-11, 4.88496e-07, 0.10789
 7896, 678, 0.965, 1.2894e-11, 5.1576e-07, 0.10789
 7908, 679, 0.965, 1.36121e-11, 5.44483e-07, 0.10789
 7920, 680, 0.965, 1.43685e-11, 5.7474e-07, 0.10789
 7932, 681, 0.965, 1.51652e-11, 6.0661e-07, 0.10789
 7944, 682, 0.965, 1.60044e-11, 6.40175e-07, 0.10789
 7956, 683, 0.965, 1.6888e-11, 6.7552e-07, 0.10789
 7968, 684, 0.965, 1.78184e-11, 7.12738e-07, 0.10789
 7980, 685, 0.965, 1.8798e-11, 7.51922e-07, 0.10789
 7992, 686, 0.965, 1.98293e-11, 7.93171e-07, 0.10789
 8004, 687, 0.965, 2.09147e-11, 8.3659e-07, 0.10789
 8016, 688, 0.965, 2.20572e-11, 8.82288e-07, 0.10789
 8028, 689, 0.965, 2.32595e-11, 9.30379e-07, 0.10789
 8040, 690, 0.965, 2.45246e-11, 9.80984e-07, 0.10789
 8052, 691, 0.965, 2.58557e-11, 1.03423e-06, 0.10789
 8064, 692, 0.965, 2.7256e-11, 1.09024e-06, 0.10789
 8076, 693, 0.965, 2.87291e-11, 1.14916e-06, 0.10789
 8088, 694, 0.965, 3.02785e-11, 1.21114e-06, 0.10789
 8100, 695, 0.965, 3.19079e-11, 1.27632e-06, 0.10789
 8112, 696, 0.965, 3.36214e-11, 1.34486e-06, 0.10789
 8124, 697, 0.965, 3.54232e-11, 1.41693e-06, 0.10789
 8136, 698, 0.965, 3.73174e-11, 1.4927e-06, 0.10789
 8148, 699, 0.965, 3.93088e-11, 1.57235e-06, 0.10789
 8160, 700, 0.965, 4.14019e-11, 1.65608e-06, 0.10789
 8172, 701, 0.965, 4.36019e-11, 1.74408e-06, 0.10789
 8184, 702, 0.965, 4.5914e-11, 1.83656e-06, 0.10789
 8196, 703, 0.965, 4.83435e-11, 1.93374e-06, 0.10789
 8208, 704, 0.965, 5.08961e-11, 2.03585e-06, 0.10789
 8220, 705, 0.965, 5.3578e-11, 2.14312e-06, 0.10789
 8232, 706, 0.965, 5.63952e-11, 2.25581e-06, 0.10789
 8244, 707, 0.965, 5.93544e-11, 2.37418e-06, 0.10789
 8256, 708, 0.965, 6.24623e-11, 2.49849e-06, 0.10789
 8268, 709, 0.965, 6.57261e-11, 2.62904e-06, 0.10789
 8280, 710, 0.965, 6.91533e-11, 2.76613e-06, 0.10789
 8292, 711, 0.965, 7.27517e-11, 2.91007e-06, 0.10789
 8304, 712, 0.965, 7.65295e-11, 3.06118e-06, 0.10789
 8316, 713, 0.965, 8.04951e-11, 3.21981e-06, 0.10789
 8328, 714, 0.965, 8.46576e-11, 3.38631e-06, 0.10789
 8340, 715, 0.965, 8.90263e-11, 3.56105e-06, 0.10789
 8352, 716, 0.965, 9.36109e-11, 3.74443e-06, 0.10789
 8364, 717, 0.965, 9.84215e-11, 3.93686e-06, 0.10789
 8376, 718, 0.965, 1.03469e-10, 4.13876e-06, 0.10789
 8388, 719, 0.965, 1.08764e-10, 4.35057e-06, 0.10789
 8400, 720, 0.965, 1.14319e-10, 4.57277e-06, 0.10789
 8412, 721, 0.965, 1.20146e-10, 4.80582e-06, 0.10789
 8424, 722, 0.965, 1.26256e-10, 5.05026e-06, 0.10789
 8436, 723, 0.965, 1.32665e-10, 5.3066e-06, 0.10789
 8448, 724, 0.965, 1.39385e-10, 5.57539e-06, 0.10789
 8460, 725, 0.965, 1.4643e-10, 5.85722e-06, 0.10789
 8472, 726, 0.965, 1.53817e-10, 6.15269e-06, 0.10789
 8484, 727, 0.965, 1.61561e-10, 6.46242e-06, 0.10789
 8496, 728, 0.965, 1.69677e-10, 6.78709e-06, 0.10789
 8508, 729, 0.965, 1.78184e-10, 7.12737e-06, 0.10789
 8520, 730, 0.965, 1.87099e-10, 7.48397e-06, 0.10789
 8532, 731, 0.965, 1.96441e-10, 7.85766e-06, 0.10789
 8544, 732, 0.965, 2.0623e-10, 8.24921e-06, 0.10789
 8556, 733, 0.965, 2.16486e-10, 8.65942e-06, 0.10789
 8568, 734, 0.965, 2.27229e-10, 9.08917e-06, 0.10789
 8580, 735, 0.965, 2.38483e-10, 9.53932e-06, 0.10789
 8592, 736, 0.965, 2.5027e-10, 1.00108e-05, 0.10789
 8604, 737, 0.965, 2.62615e-10, 1.05046e-05, 0.10789
 8616, 738, 0.965, 2.75542e-10, 1.10217e-05, 0.10789
 8628, 739, 0.965, 2.89078e-10, 1.15631e-05, 0.10789
 8640, 740, 0.965, 3.03251e-10, 1.213e-05, 0.10789
 8652, 741, 0.965, 3.18088e-10, 1.27235e-05, 0.10789
 8664, 742, 0.965, 3.3362e-10, 1.33448e-05, 0.10789
 8676, 743, 0.965, 3.49878e-10, 1.39951e-05, 0.107891
 8688, 744, 0.965, 3.66893e-10, 1.46757e-05, 0.107891
 8700, 745, 0.965, 3.847e-10, 1.5388e-05, 0.10789
 8712, 746, 0.965, 4.03334e-10, 1.61333e-05, 0.107891
 8724, 747, 0.965, 4.22831e-10, 1.69132e-05, 0.107891
 8736, 748, 0.965, 4.43229e-10, 1.77292e-05, 0.10789
 8748, 749, 0.965, 4.64569e-10, 1.85828e-05, 0.10789
 8760, 750, 0.965, 4.86892e-10, 1.94757e-05, 0.10789
 8772, 751, 0.965, 5.1024e-10, 2.04096e-05, 0.107891
 8784, 752, 0.965, 5.34659e-10, 2.13864e-05, 0.107891
 8796, 753, 0.965, 5.60196e-10, 2.24078e-05, 0.107891
 8808, 754, 0.965, 5.86899e-10, 2.3476e-05, 0.107891
 8820, 755, 0.965, 6.14819e-10, 2.45928e-05, 0.10789
 8832, 756, 0.965, 6.44009e-10, 2.57604e-05, 0.107891
 8844, 757, 0.965, 6.74525e-10, 2.6981e-05, 0.10789
 8856, 758, 0.965, 7.06423e-10, 2.82569e-05, 0.107891
 8868, 759, 0.965, 7.39763e-10, 2.95905e-05, 0.10789
 8880, 760, 0.965, 7.74608e-10, 3.09843e-05, 0.107891
 8892, 761, 0.965, 8.11021e-10, 3.24408e-05, 0.107891
 8904, 762, 0.965, 8.49071e-10, 3.39629e-05, 0.107891
 8916, 763, 0.965, 8.88828e-10, 3.55531e-05, 0.107891
 8928, 764, 0.965, 9.30364e-10, 3.72145e-05, 0.107891
 8940, 765, 0.965, 9.73755e-10, 3.89502e-05, 0.107891
 8952, 766, 0.965, 1.01908e-09, 4.07632e-05, 0.107891
 8964, 767, 0.965, 1.06642e-09, 4.26569e-05, 0.107891
 8976, 768, 0.965, 1.11587e-09, 4.46347e-05, 0.107891
 8988, 769, 0.965, 1.1675e-09, 4.67001e-05, 0.107891
 9000, 770, 0.965, 1.22142e-09, 4.88568e-05, 0.107891
 9012, 771, 0.965, 1.27772e-09, 5.11087e-05, 0.107891
 9024, 772, 0.965, 1.3365e-09, 5.34598e-05, 0.107891
 9036, 773, 0.965, 1.39786e-09, 5.59143e-05, 0.107891
 9048, 774, 0.965, 1.46191e-09, 5.84764e-05, 0.107891
 9060, 775, 0.965, 1.52877e-09, 6.11507e-05, 0.107891
 9072, 776, 0.965, 1.59855e-09, 6.39419e-05, 0.107891
 9084, 777, 0.965, 1.67137e-09, 6.68547e-05, 0.107891
 9096, 778, 0.965, 1.74736e-09, 6.98944e-05, 0.107891
 9108, 779, 0.965, 1.82665e-09, 7.3066e-05, 0.107891
 9120, 780, 0.965, 1.90938e-09, 7.63752e-05, 0.107891
 9132, 781, 0.965, 1.99569e-09, 7.98275e-05, 0.107891
 9144, 782, 0.964999, 2.08572e-09, 8.34289e-05, 0.107891
 9156, 783, 0.964999, 2.17964e-09, 8.71854e-05, 0.107891
 9168, 784, 0.964999, 2.27759e-09, 9.11036e-05, 0.107891
 9180, 785, 0.964999, 2.37975e-09, 9.51898e-05, 0.107891
 9192, 786, 0.964999, 2.48628e-09, 9.94512e-05, 0.107891
 9204, 787, 0.964999, 2.59737e-09, 0.000103895, 0.107891
 9216, 788, 0.964999, 2.7132e-09, 0.000108528, 0.107891
 9228, 789, 0.964999, 2.83396e-09, 0.000113358, 0.107891
 9240, 790, 0.964999, 2.95985e-09, 0.000118394, 0.107891
 9252, 791, 0.964999, 3.09108e-09, 0.000123643, 0.107891
 9264, 792, 0.964999, 3.22787e-09, 0.000129115, 0.107891
 9276, 793, 0.964999, 3.37044e-09, 0.000134817, 0.107891
 9288, 794, 0.964999, 3.51902e-09, 0.000140761, 0.107891
 9300, 795, 0.964999, 3.67385e-09, 0.000146954, 0.107891
 9312, 796, 0.964999, 3.83518e-09, 0.000153407, 0.107891
 9324, 797, 0.964999, 4.00328e-09, 0.000160131, 0.107891
 9336, 798, 0.964999, 4.17842e-09, 0.000167137, 0.107891
 9348, 799, 0.964999, 4.36086e-09, 0.000174434, 0.107891
 9360, 800, 0.964999, 4.55091e-09, 0.000182036, 0.107891