File: examples/Birch_TGA_Example/Work/Cone_arvlop4v/birch_tga_1step_10_tga.csv
s,C,g/g,1/s,W/g,W/g
Time,Temp,Mass,MLR,MCC,DSC
 6, 21.0007, 0.999998, 4.369e-07, 0.0000000E+000, 0.236481
 12, 22.0007, 0.999995, 5.01762e-07, 0.0000000E+000, 0.236626
 18, 23.0007, 0.999992, 5.75705e-07, 0.0000000E+000, 0.236791
 24, 24.0007, 0.999988, 6.5992e-07, 0.0000000E+000, 0.236979
 30, 25.0007, 0.999984, 7.55746e-07, 0.0000000E+000, 0.237193
 36, 26.0007, 0.999979, 8.64679e-07, 0.0000000E+000, 0.237436
 42, 27.0007, 0.999973, 9.88398e-07, 0.0000000E+000, 0.237712
 48, 28.0007, 0.999967, 1.12878e-06, 0.0000000E+000, 0.238026
 54, 29.0007, 0.99996, 1.28792e-06, 0.0000000E+000, 0.238381
 60, 30.0007, 0.999951, 1.46815e-06, 0.0000000E+000, 0.238783
 66, 31.0007, 0.999942, 1.67208e-06, 0.0000000E+000, 0.239238
 72, 32.0007, 0.999931, 1.90261e-06, 0.0000000E+000, 0.239752
 78, 33.0007, 0.999919, 2.16297e-06, 0.0000000E+000, 0.240332
 84, 34.0007, 0.999905, 2.45672e-06, 0.0000000E+000, 0.240988
 90, 35.0007, 0.999889, 2.78785e-06, 0.0000000E+000, 0.241726
 96, 36.0007, 0.999872, 3.16074e-06, 0.0000000E+000, 0.242557
 102, 37.0007, 0.999851, 3.58024e-06, 0.0000000E+000, 0.243492
 108, 38.0007, 0.999829, 4.05172e-06, 0.0000000E+000, 0.244543
 114, 39.0007, 0.999803, 4.58107e-06, 0.0000000E+000, 0.245723
 120, 40.0007, 0.999773, 5.17477e-06, 0.0000000E+000, 0.247046
 126, 41.0007, 0.99974, 5.83993e-06, 0.0000000E+000, 0.248528
 132, 42.0007, 0.999703, 6.58435e-06, 0.0000000E+000, 0.250187
 138, 43.0007, 0.999661, 7.41652e-06, 0.0000000E+000, 0.252041
 144, 44.0007, 0.999614, 8.34569e-06, 0.0000000E+000, 0.25411
 150, 45.0007, 0.999561, 9.38191e-06, 0.0000000E+000, 0.256418
 156, 46.0007, 0.999501, 1.0536e-05, 0.0000000E+000, 0.258988
 162, 47.0007, 0.999434, 1.18198e-05, 0.0000000E+000, 0.261846
 168, 48.0007, 0.999359, 1.32457e-05, 0.0000000E+000, 0.26502
 174, 49.0007, 0.999275, 1.48273e-05, 0.0000000E+000, 0.268541
 180, 50.0007, 0.999181, 1.65786e-05, 0.0000000E+000, 0.272438
 186, 51.0007, 0.999076, 1.85149e-05, 0.0000000E+000, 0.276746
 192, 52.0007, 0.998958, 2.06518e-05, 0.0000000E+000, 0.281499
 198, 53.0007, 0.998827, 2.30056e-05, 0.0000000E+000, 0.286735
 204, 54.0007, 0.998682, 2.55932e-05, 0.0000000E+000, 0.292488
 210, 55.0007, 0.99852, 2.84316e-05, 0.0000000E+000, 0.298798
 216, 56.0007, 0.99834, 3.15376e-05, 0.0000000E+000, 0.305701
 222, 57.0007, 0.998141, 3.49279e-05, 0.0000000E+000, 0.313233
 228, 58.0007, 0.99792, 3.86181e-05, 0.0000000E+000, 0.32143
 234, 59.0006, 0.997676, 4.26227e-05, 0.0000000E+000, 0.330321
 240, 60.0006, 0.997408, 4.69538e-05, 0.0000000E+000, 0.339934
 246, 61.0006, 0.997112, 5.1621e-05, 0.0000000E+000, 0.350289
 252, 62.0006, 0.996788, 5.66299e-05, 0.0000000E+000, 0.361396
 258, 63.0006, 0.996432, 6.19815e-05, 0.0000000E+000, 0.373258
 264, 64.0006, 0.996043, 6.76707e-05, 0.0000000E+000, 0.38586
 270, 65.0006, 0.995619, 7.36851e-05, 0.0000000E+000, 0.399173
 276, 66.0006, 0.995158, 8.00034e-05, 0.0000000E+000, 0.413148
 282, 67.0006, 0.994659, 8.65938e-05, 0.0000000E+000, 0.427712
 288, 68.0006, 0.994119, 9.34127e-05, 0.0000000E+000, 0.442764
 294, 69.0006, 0.993537, 0.000100403, 0.0000000E+000, 0.458175
 300, 70.0006, 0.992914, 0.000107491, 0.0000000E+000, 0.473779
 306, 71.0006, 0.992247, 0.000114589, 0.0000000E+000, 0.489374
 312, 72.0005, 0.991539, 0.000121591, 0.0000000E+000, 0.504721
 318, 73.0005, 0.990789, 0.000128371, 0.0000000E+000, 0.519538
 324, 74.0005, 0.989999, 0.000134788, 0.0000000E+000, 0.533507
 330, 75.0005, 0.989172, 0.000140686, 0.0000000E+000, 0.546273
 336, 76.0005, 0.988312, 0.000145893, 0.0000000E+000, 0.557452
 342, 77.0005, 0.987423, 0.000150228, 0.0000000E+000, 0.566639
 348, 78.0005, 0.986511, 0.000153509, 0.0000000E+000, 0.573423
 354, 79.0005, 0.985583, 0.000155554, 0.0000000E+000, 0.577402
 360, 80.0005, 0.984647, 0.000156198, 0.0000000E+000, 0.578202
 366, 81.0005, 0.983712, 0.000155296, 0.0000000E+000, 0.575505
 372, 82.0005, 0.982787, 0.00015274, 0.0000000E+000, 0.569073
 378, 83.0005, 0.981883, 0.00014847, 0.0000000E+000, 0.558774
 384, 84.0005, 0.981009, 0.000142481, 0.0000000E+000, 0.54461
 390, 85.0005, 0.980176, 0.00013484, 0.0000000E+000, 0.526736
 396, 86.0005, 0.979394, 0.000125686, 0.0000000E+000, 0.505472
 402, 87.0006, 0.978671, 0.000115232, 0.0000000E+000, 0.481311
 408, 88.0006, 0.978013, 0.000103764, 0.0000000E+000, 0.454901
 414, 89.0006, 0.977427, 9.16268e-05, 0.0000000E+000, 0.427026
 420, 90.0006, 0.976915, 7.92048e-05, 0.0000000E+000, 0.39856
 426, 91.0006, 0.976476, 6.69e-05, 0.0000000E+000, 0.370411
 432, 92.0006, 0.976111, 5.51024e-05, 0.0000000E+000, 0.343461
 438, 93.0007, 0.975814, 4.41606e-05, 0.0000000E+000, 0.318496
 444, 94.0007, 0.975579, 3.43553e-05, 0.0000000E+000, 0.296147
 450, 95.0007, 0.975399, 2.58783e-05, 0.0000000E+000, 0.276842
 456, 96.0007, 0.975266, 1.88216e-05, 0.0000000E+000, 0.260783
 462, 97.0007, 0.97517, 1.31783e-05, 0.0000000E+000, 0.247949
 468, 98.0007, 0.975105, 8.85397e-06, 0.0000000E+000, 0.23812
 474, 99.0007, 0.975062, 5.68824e-06, 0.0000000E+000, 0.230929
 480, 100.001, 0.975035, 3.48129e-06, 0.0000000E+000, 0.225917
 486, 101.001, 0.975018, 2.02144e-06, 0.0000000E+000, 0.222604
 492, 102.001, 0.975009, 1.10874e-06, 0.0000000E+000, 0.220533
 498, 103.001, 0.975004, 5.71736e-07, 0.0000000E+000, 0.219315
 504, 104.001, 0.975002, 2.75767e-07, 0.0000000E+000, 0.218643
 510, 105.001, 0.975001, 1.23733e-07, 0.0000000E+000, 0.218299
 516, 106.001, 0.975, 5.13397e-08, 0.0000000E+000, 0.218135
 522, 107.001, 0.975, 1.95741e-08, 0.0000000E+000, 0.218063
 528, 108.001, 0.975, 6.81075e-09, 0.0000000E+000, 0.218034
 534, 109.001, 0.975, 2.1468e-09, 0.0000000E+000, 0.218023
 540, 110.001, 0.975, 6.08177e-10, 0.0000000E+000, 0.21802
 546, 111.001, 0.975, 1.53537e-10, 0.0000000E+000, 0.218019
 552, 112.001, 0.975, 3.42265e-11, 0.0000000E+000, 0.218018
 558, 113.001, 0.975, 6.67137e-12, 0.0000000E+000, 0.218018
 564, 114.001, 0.975, 1.12509e-12, 0.0000000E+000, 0.218018
 570, 115.001, 0.975, 1.62315e-13, 0.0000000E+000, 0.218018
 576, 116.001, 0.975, 1.97906e-14, 0.0000000E+000, 0.218018
 582, 117.001, 0.975, 2.01293e-15, 0.0000000E+000, 0.218018
 588, 118.001, 0.975, 1.68423e-16, 0.0000000E+000, 0.218018
 594, 119.001, 0.975, 1.14203e-17, 0.0000000E+000, 0.218018
 600, 120.001, 0.975, 6.17577e-19, 0.0000000E+000, 0.218018
 606, 121.001, 0.975, 2.6181e-20, 0.0000000E+000, 0.218018
 612, 122.001, 0.975, 8.54228e-22, 1.50044e-38, 0.218018
 618, 123.001, 0.975, 2.10333e-23, 2.053e-38, 0.218018
 624, 124.001, 0.975, 3.82682e-25, 2.80461e-38, 0.218018
 630, 125.001, 0.975, 5.03016e-27, 3.82539e-38, 0.218018
 636, 126.001, 0.975, 4.66309e-29, 5.20959e-38, 0.218018
 642, 127.001, 0.975, 2.97116e-31, 7.08371e-38, 0.218018
 648, 128.001, 0.975, 1.26584e-33, 9.61729e-38, 0.218018
 654, 129.001, 0.975, 3.50153e-36, 1.30372e-37, 0.218018
 660, 130.001, 0.975, 0.0000000E+000, 1.76466e-37, 0.218018
 666, 131.001, 0.975, 0.0000000E+000, 2.38499e-37, 0.218018
 672, 132.001, 0.975, 0.0000000E+000, 3.21859e-37, 0.218018
 678, 133.001, 0.975, 0.0000000E+000, 4.33715e-37, 0.218018
 684, 134.001, 0.975, 0.0000000E+000, 5.83588e-37, 0.218018
 690, 135.001, 0.975, 0.0000000E+000, 7.8411e-37, 0.218018
 696, 136.001, 0.975, 0.0000000E+000, 1.05201e-36, 0.218018
 702, 137.001, 0.975, 0.0000000E+000, 1.40943e-36, 0.218018
 708, 138.001, 0.975, 0.0000000E+000, 1.88558e-36, 0.218018
 714, 139.001, 0.975, 0.0000000E+000, 2.51904e-36, 0.218018
 720, 140.001, 0.975, 0.0000000E+000, 3.3606e-36, 0.218018
 726, 141.001, 0.975, 0.0000000E+000, 4.47706e-36, 0.218018
 732, 142.001, 0.975, 0.0000000E+000, 5.9562e-36, 0.218018
 738, 143.001, 0.975, 0.0000000E+000, 7.91315e-36, 0.218018
 744, 144.001, 0.975, 0.0000000E+000, 1.04988e-35, 0.218018
 750, 145.001, 0.975, 0.0000000E+000, 1.39104e-35, 0.218018
 756, 146.001, 0.975, 0.0000000E+000, 1.8406e-35, 0.218018
 762, 147.001, 0.975, 0.0000000E+000, 2.4322e-35, 0.218018
 768, 148.001, 0.975, 0.0000000E+000, 3.20969e-35, 0.218018
 774, 149.001, 0.975, 0.0000000E+000, 4.23017e-35, 0.218018
 780, 150.001, 0.975, 0.0000000E+000, 5.56782e-35, 0.218018
 786, 151.001, 0.975, 0.0000000E+000, 7.31896e-35, 0.218018
 792, 152.001, 0.975, 0.0000000E+000, 9.6085e-35, 0.218018
 798, 153.001, 0.975, 0.0000000E+000, 1.25982e-34, 0.218018
 804, 154.001, 0.975, 0.0000000E+000, 1.64971e-34, 0.218018
 810, 155.001, 0.975, 0.0000000E+000, 2.15755e-34, 0.218018
 816, 156.001, 0.975, 0.0000000E+000, 2.8182e-34, 0.218018
 822, 157.001, 0.975, 0.0000000E+000, 3.67656e-34, 0.218018
 828, 158.001, 0.975, 1.19761e-38, 4.79046e-34, 0.218018
 834, 159.001, 0.975, 1.55855e-38, 6.2342e-34, 0.218018
 840, 160.001, 0.975, 2.02579e-38, 8.10318e-34, 0.218018
 846, 161.001, 0.975, 2.62994e-38, 1.05198e-33, 0.218018
 852, 162.001, 0.975, 3.41017e-38, 1.36407e-33, 0.218018
 858, 163.001, 0.975, 4.41659e-38, 1.76664e-33, 0.218018
 864, 164.001, 0.975, 5.71328e-38, 2.28531e-33, 0.218018
 870, 165.001, 0.975, 7.38199e-38, 2.9528e-33, 0.218018
 876, 166.001, 0.975, 9.52697e-38, 3.81079e-33, 0.218018
 882, 167.001, 0.975, 1.2281e-37, 4.91239e-33, 0.218018
 888, 168.001, 0.975, 1.58129e-37, 6.32514e-33, 0.218018
 894, 169.001, 0.975, 2.03372e-37, 8.13489e-33, 0.218018
 900, 170.001, 0.975, 2.61264e-37, 1.04506e-32, 0.218018
 906, 171.001, 0.975, 3.35257e-37, 1.34103e-32, 0.218018
 912, 172.001, 0.975, 4.29724e-37, 1.71889e-32, 0.218018
 918, 173.001, 0.975, 5.50196e-37, 2.20078e-32, 0.218018
 924, 174.001, 0.975, 7.03664e-37, 2.81466e-32, 0.218018
 930, 175.001, 0.975, 8.98953e-37, 3.59581e-32, 0.218018
 936, 176.001, 0.975, 1.14719e-36, 4.58875e-32, 0.218018
 942, 177.001, 0.975, 1.46239e-36, 5.84954e-32, 0.218018
 948, 178.001, 0.975, 1.86218e-36, 7.44872e-32, 0.218018
 954, 179.001, 0.975, 2.36874e-36, 9.47496e-32, 0.218018
 960, 180.001, 0.975, 3.0099e-36, 1.20396e-31, 0.218018
 966, 181.001, 0.975, 3.82057e-36, 1.52823e-31, 0.218018
 972, 182.001, 0.975, 4.8445e-36, 1.9378e-31, 0.218018
 978, 183.001, 0.975, 6.13646e-36, 2.45458e-31, 0.218018
 984, 184.001, 0.975, 7.76493e-36, 3.10597e-31, 0.218018
 990, 185.001, 0.975, 9.81547e-36, 3.92619e-31, 0.218018
 996, 186.001, 0.975, 1.23949e-35, 4.95794e-31, 0.218018
 1002, 187.001, 0.975, 1.56362e-35, 6.25448e-31, 0.218018
 1008, 188.001, 0.975, 1.97053e-35, 7.88213e-31, 0.218018
 1014, 189.001, 0.975, 2.48085e-35, 9.92341e-31, 0.218018
 1020, 190.001, 0.975, 3.12023e-35, 1.24809e-30, 0.218018
 1026, 191.001, 0.975, 3.92051e-35, 1.56821e-30, 0.218018
 1032, 192.001, 0.975, 4.92123e-35, 1.96849e-30, 0.218018
 1038, 193.001, 0.975, 6.17135e-35, 2.46854e-30, 0.218018
 1044, 194.001, 0.975, 7.73153e-35, 3.09261e-30, 0.218018
 1050, 195.001, 0.975, 9.67683e-35, 3.87073e-30, 0.218018
 1056, 196.001, 0.975, 1.21e-34, 4.84e-30, 0.218018
 1062, 197.001, 0.975, 1.51156e-34, 6.04622e-30, 0.218018
 1068, 198.001, 0.975, 1.88648e-34, 7.54594e-30, 0.218018
 1074, 199.001, 0.975, 2.3522e-34, 9.4088e-30, 0.218018
 1080, 200.001, 0.975, 2.93016e-34, 1.17206e-29, 0.218018
 1086, 201.001, 0.975, 3.64674e-34, 1.45869e-29, 0.218018
 1092, 202.001, 0.975, 4.53438e-34, 1.81375e-29, 0.218018
 1098, 203.001, 0.975, 5.63294e-34, 2.25317e-29, 0.218018
 1104, 204.001, 0.975, 6.99127e-34, 2.79651e-29, 0.218018
 1110, 205.001, 0.975, 8.66933e-34, 3.46773e-29, 0.218018
 1116, 206.001, 0.975, 1.07405e-33, 4.2962e-29, 0.218018
 1122, 207.001, 0.975, 1.32946e-33, 5.31785e-29, 0.218018
 1128, 208.001, 0.975, 1.64415e-33, 6.57662e-29, 0.218018
 1134, 209.001, 0.975, 2.03154e-33, 8.12618e-29, 0.218018
 1140, 210.001, 0.975, 2.50801e-33, 1.0032e-28, 0.218018
 1146, 211.001, 0.975, 3.09353e-33, 1.23741e-28, 0.218018
 1152, 212.001, 0.975, 3.81245e-33, 1.52498e-28, 0.218018
 1158, 213.001, 0.975, 4.69441e-33, 1.87776e-28, 0.218018
 1164, 214.001, 0.975, 5.77546e-33, 2.31018e-28, 0.218018
 1170, 215.001, 0.975, 7.09942e-33, 2.83977e-28, 0.218018
 1176, 216.001, 0.975, 8.71953e-33, 3.48781e-28, 0.218018
 1182, 217.001, 0.975, 1.07004e-32, 4.28015e-28, 0.218018
 1188, 218.001, 0.975, 1.31203e-32, 5.24811e-28, 0.218018
 1194, 219.001, 0.975, 1.60741e-32, 6.42964e-28, 0.218018
 1200, 220.001, 0.975, 1.96767e-32, 7.87069e-28, 0.218018
 1206, 221.001, 0.975, 2.40671e-32, 9.62684e-28, 0.218018
 1212, 222.001, 0.975, 2.94131e-32, 1.17653e-27, 0.218018
 1218, 223.001, 0.975, 3.59176e-32, 1.4367e-27, 0.218018
 1224, 224.001, 0.975, 4.38253e-32, 1.75301e-27, 0.218018
 1230, 225.001, 0.975, 5.34312e-32, 2.13725e-27, 0.218018
 1236, 226.001, 0.975, 6.5091e-32, 2.60364e-27, 0.218018
 1242, 227.001, 0.975, 7.92325e-32, 3.1693e-27, 0.218018
 1248, 228.001, 0.975, 9.63708e-32, 3.85483e-27, 0.218018
 1254, 229.001, 0.975, 1.17125e-31, 4.68499e-27, 0.218018
 1260, 230.001, 0.975, 1.42238e-31, 5.68951e-27, 0.218018
 1266, 231.001, 0.975, 1.72602e-31, 6.9041e-27, 0.218018
 1272, 232.001, 0.975, 2.09289e-31, 8.37155e-27, 0.218018
 1278, 233.001, 0.975, 2.5358e-31, 1.01432e-26, 0.218018
 1284, 234.001, 0.975, 3.07011e-31, 1.22804e-26, 0.218018
 1290, 235.001, 0.975, 3.71421e-31, 1.48569e-26, 0.218018
 1296, 236.001, 0.975, 4.49009e-31, 1.79604e-26, 0.218018
 1302, 237.001, 0.975, 5.424e-31, 2.1696e-26, 0.218018
 1308, 238.001, 0.975, 6.54732e-31, 2.61893e-26, 0.218018
 1314, 239.001, 0.975, 7.89747e-31, 3.15899e-26, 0.218018
 1320, 240.001, 0.975, 9.51909e-31, 3.80764e-26, 0.218018
 1326, 241.001, 0.975, 1.14653e-30, 4.58614e-26, 0.218018
 1332, 242.001, 0.975, 1.37996e-30, 5.51982e-26, 0.218018
 1338, 243.001, 0.975, 1.65971e-30, 6.63883e-26, 0.218018
 1344, 244.001, 0.975, 1.99475e-30, 7.97898e-26, 0.218018
 1350, 245.001, 0.975, 2.39572e-30, 9.58287e-26, 0.218018
 1356, 246.001, 0.975, 2.87526e-30, 1.1501e-25, 0.218018
 1362, 247.001, 0.975, 3.44837e-30, 1.37935e-25, 0.218018
 1368, 248.001, 0.975, 4.13283e-30, 1.65313e-25, 0.218018
 1374, 249.001, 0.975, 4.94972e-30, 1.97989e-25, 0.218018
 1380, 250.001, 0.975, 5.92398e-30, 2.36959e-25, 0.218018
 1386, 251.001, 0.975, 7.08515e-30, 2.83406e-25, 0.218018
 1392, 252.001, 0.975, 8.46815e-30, 3.38726e-25, 0.218018
 1398, 253.001, 0.975, 1.01142e-29, 4.0457e-25, 0.218018
 1404, 254.001, 0.975, 1.20722e-29, 4.82888e-25, 0.218018
 1410, 255.001, 0.975, 1.43995e-29, 5.7598e-25, 0.218018
 1416, 256.001, 0.975, 1.7164e-29, 6.86561e-25, 0.218018
 1422, 257.001, 0.975, 2.04458e-29, 8.17831e-25, 0.218018
 1428, 258.001, 0.975, 2.43389e-29, 9.73558e-25, 0.218018
 1434, 259.001, 0.975, 2.89544e-29, 1.15818e-24, 0.218018
 1440, 260.001, 0.975, 3.44228e-29, 1.37691e-24, 0.218018
 1446, 261.001, 0.975, 4.08974e-29, 1.6359e-24, 0.218018
 1452, 262.001, 0.975, 4.85585e-29, 1.94234e-24, 0.218018
 1458, 263.001, 0.975, 5.76178e-29, 2.30471e-24, 0.218018
 1464, 264.001, 0.975, 6.83237e-29, 2.73295e-24, 0.218018
 1470, 265.001, 0.975, 8.09676e-29, 3.2387e-24, 0.218018
 1476, 266.001, 0.975, 9.5891e-29, 3.83564e-24, 0.218018
 1482, 267.001, 0.975, 1.13494e-28, 4.53975e-24, 0.218018
 1488, 268.001, 0.975, 1.34244e-28, 5.36977e-24, 0.218018
 1494, 269.001, 0.975, 1.5869e-28, 6.34761e-24, 0.218018
 1500, 270.001, 0.975, 1.87472e-28, 7.4989e-24, 0.218018
 1506, 271.001, 0.975, 2.21339e-28, 8.85358e-24, 0.218018
 1512, 272.001, 0.975, 2.61165e-28, 1.04466e-23, 0.218018
 1518, 273.001, 0.975, 3.0797e-28, 1.23188e-23, 0.218018
 1524, 274.001, 0.975, 3.62945e-28, 1.45178e-23, 0.218018
 1530, 275.001, 0.975, 4.27476e-28, 1.7099e-23, 0.218018
 1536, 276.001, 0.975, 5.03181e-28, 2.01273e-23, 0.218018
 1542, 277.001, 0.975, 5.91943e-28, 2.36777e-23, 0.218018
 1548, 278.001, 0.975, 6.95951e-28, 2.7838e-23, 0.218018
 1554, 279.001, 0.975, 8.17755e-28, 3.27102e-23, 0.218018
 1560, 280.001, 0.975, 9.60317e-28, 3.84127e-23, 0.218018
 1566, 281.001, 0.975, 1.12708e-27, 4.50831e-23, 0.218018
 1572, 282.001, 0.975, 1.32203e-27, 5.28814e-23, 0.218018
 1578, 283.001, 0.975, 1.54982e-27, 6.1993e-23, 0.218018
 1584, 284.001, 0.975, 1.81583e-27, 7.2633e-23, 0.218018
 1590, 285.001, 0.975, 2.12628e-27, 8.5051e-23, 0.218018
 1596, 286.001, 0.975, 2.4884e-27, 9.95359e-23, 0.218018
 1602, 287.001, 0.975, 2.91056e-27, 1.16422e-22, 0.218018
 1608, 288.001, 0.975, 3.40243e-27, 1.36097e-22, 0.218018
 1614, 289.001, 0.975, 3.97523e-27, 1.59009e-22, 0.218018
 1620, 290.001, 0.975, 4.64189e-27, 1.85676e-22, 0.218018
 1626, 291.001, 0.975, 5.41737e-27, 2.16695e-22, 0.218018
 1632, 292.001, 0.975, 6.31895e-27, 2.52758e-22, 0.218018
 1638, 293.001, 0.975, 7.36656e-27, 2.94663e-22, 0.218018
 1644, 294.001, 0.975, 8.58322e-27, 3.43329e-22, 0.218018
 1650, 295.001, 0.975, 9.99544e-27, 3.99818e-22, 0.218018
 1656, 296.001, 0.975, 1.16338e-26, 4.65351e-22, 0.218018
 1662, 297.001, 0.975, 1.35335e-26, 5.41338e-22, 0.218018
 1668, 298.001, 0.975, 1.5735e-26, 6.294e-22, 0.218018
 1674, 299.001, 0.975, 1.8285e-26, 7.31401e-22, 0.218018
 1680, 300.001, 0.975, 2.12372e-26, 8.49488e-22, 0.218018
 1686, 301.001, 0.975, 2.46531e-26, 9.86125e-22, 0.218018
 1692, 302.001, 0.975, 2.86037e-26, 1.14415e-21, 0.218018
 1698, 303.001, 0.975, 3.31701e-26, 1.32681e-21, 0.218018
 1704, 304.001, 0.975, 3.84459e-26, 1.53784e-21, 0.218018
 1710, 305.001, 0.975, 4.4538e-26, 1.78152e-21, 0.218018
 1716, 306.001, 0.975, 5.15693e-26, 2.06277e-21, 0.218018
 1722, 307.001, 0.975, 5.96805e-26, 2.38722e-21, 0.218018
 1728, 308.001, 0.975, 6.90327e-26, 2.76131e-21, 0.218018
 1734, 309.001, 0.975, 7.98106e-26, 3.19242e-21, 0.218018
 1740, 310.001, 0.975, 9.22252e-26, 3.68901e-21, 0.218018
 1746, 311.001, 0.975, 1.06518e-25, 4.26073e-21, 0.218018
 1752, 312.001, 0.975, 1.22966e-25, 4.91863e-21, 0.218018
 1758, 313.001, 0.975, 1.41884e-25, 5.67534e-21, 0.218018
 1764, 314.001, 0.975, 1.63632e-25, 6.54528e-21, 0.218018
 1770, 315.001, 0.975, 1.88623e-25, 7.5449e-21, 0.218018
 1776, 316.001, 0.975, 2.17325e-25, 8.693e-21, 0.218018
 1782, 317.001, 0.975, 2.50275e-25, 1.0011e-20, 0.218018
 1788, 318.001, 0.975, 2.88082e-25, 1.15233e-20, 0.218018
 1794, 319.001, 0.975, 3.31444e-25, 1.32578e-20, 0.218018
 1800, 320.001, 0.975, 3.81152e-25, 1.52461e-20, 0.218018
 1806, 321.001, 0.975, 4.38109e-25, 1.75244e-20, 0.218018
 1812, 322.001, 0.975, 5.03342e-25, 2.01337e-20, 0.218018
 1818, 323.001, 0.975, 5.78018e-25, 2.31207e-20, 0.218018
 1824, 324.001, 0.975, 6.63466e-25, 2.65387e-20, 0.218018
 1830, 325.001, 0.975, 7.61195e-25, 3.04478e-20, 0.218018
 1836, 326.001, 0.975, 8.72919e-25, 3.49168e-20, 0.218018
 1842, 327.001, 0.975, 1.00058e-24, 4.00234e-20, 0.218018
 1848, 328.001, 0.975, 1.1464e-24, 4.5856e-20, 0.218018
 1854, 329.001, 0.975, 1.31287e-24, 5.25148e-20, 0.218018
 1860, 330.001, 0.975, 1.50284e-24, 6.01136e-20, 0.218018
 1866, 331.001, 0.975, 1.71953e-24, 6.87812e-20, 0.218018
 1872, 332.001, 0.975, 1.96659e-24, 7.86634e-20, 0.218018
 1878, 333.001, 0.975, 2.24814e-24, 8.99257e-20, 0.218018
 1884, 334.001, 0.975, 2.56888e-24, 1.02755e-19, 0.218018
 1890, 335.001, 0.975, 2.93408e-24, 1.17363e-19, 0.218018
 1896, 336.001, 0.975, 3.34975e-24, 1.3399e-19, 0.218018
 1902, 337.001, 0.975, 3.82263e-24, 1.52905e-19, 0.218018
 1908, 338.001, 0.975, 4.36039e-24, 1.74416e-19, 0.218018
 1914, 339.001, 0.975, 4.97167e-24, 1.98867e-19, 0.218018
 1920, 340.001, 0.975, 5.66621e-24, 2.26649e-19, 0.218018
 1926, 341.001, 0.975, 6.45503e-24, 2.58201e-19, 0.218018
 1932, 342.001, 0.975, 7.35055e-24, 2.94022e-19, 0.218018
 1938, 343.001, 0.975, 8.36678e-24, 3.34671e-19, 0.218018
 1944, 344.001, 0.975, 9.51951e-24, 3.80781e-19, 0.218018
 1950, 345.001, 0.975, 1.08265e-23, 4.33061e-19, 0.218018
 1956, 346.001, 0.975, 1.23079e-23, 4.92316e-19, 0.218018
 1962, 347.001, 0.975, 1.39862e-23, 5.59447e-19, 0.218018
 1968, 348.001, 0.975, 1.58867e-23, 6.35469e-19, 0.218018
 1974, 349.001, 0.975, 1.80382e-23, 7.21527e-19, 0.218018
 1980, 350.001, 0.975, 2.04726e-23, 8.18905e-19, 0.218018
 1986, 351.001, 0.975, 2.32262e-23, 9.29049e-19, 0.218018
 1992, 352.001, 0.975, 2.63395e-23, 1.05358e-18, 0.218018
 1998, 353.001, 0.975, 2.98582e-23, 1.19433e-18, 0.218018
 2004, 354.001, 0.975, 3.38333e-23, 1.35333e-18, 0.218018
 2010, 355.001, 0.975, 3.83224e-23, 1.5329e-18, 0.218018
 2016, 356.001, 0.975, 4.339e-23, 1.7356e-18, 0.218018
 2022, 357.001, 0.975, 4.91083e-23, 1.96433e-18, 0.218018
 2028, 358.001, 0.975, 5.55584e-23, 2.22234e-18, 0.218018
 2034, 359.001, 0.975, 6.28312e-23, 2.51325e-18, 0.218018
 2040, 360.001, 0.975, 7.10284e-23, 2.84114e-18, 0.218018
 2046, 361.001, 0.975, 8.0264e-23, 3.21056e-18, 0.218018
 2052, 362.001, 0.975, 9.06656e-23, 3.62662e-18, 0.218018
 2058, 363.001, 0.975, 1.02376e-22, 4.09504e-18, 0.218018
 2064, 364.001, 0.975, 1.15555e-22, 4.62218e-18, 0.218018
 2070, 365.001, 0.975, 1.3038e-22, 5.21521e-18, 0.218018
 2076, 366.001, 0.975, 1.47053e-22, 5.8821e-18, 0.218018
 2082, 367.001, 0.975, 1.65794e-22, 6.63178e-18, 0.218018
 2088, 368.001, 0.975, 1.86855e-22, 7.4742e-18, 0.218018
 2094, 369.001, 0.975, 2.10513e-22, 8.42051e-18, 0.218018
 2100, 370.001, 0.975, 2.37077e-22, 9.4831e-18, 0.218018
 2106, 371.001, 0.975, 2.66896e-22, 1.06758e-17, 0.218018
 2112, 372.001, 0.975, 3.00355e-22, 1.20142e-17, 0.218018
 2118, 373.001, 0.975, 3.37884e-22, 1.35154e-17, 0.218018
 2124, 374.001, 0.975, 3.79965e-22, 1.51986e-17, 0.218018
 2130, 375.001, 0.975, 4.27132e-22, 1.70853e-17, 0.218018
 2136, 376.001, 0.975, 4.79981e-22, 1.91992e-17, 0.218018
 2142, 377.001, 0.975, 5.39175e-22, 2.1567e-17, 0.218018
 2148, 378.001, 0.975, 6.05453e-22, 2.42181e-17, 0.218018
 2154, 379.001, 0.975, 6.79637e-22, 2.71855e-17, 0.218018
 2160, 380.001, 0.975, 7.6264e-22, 3.05056e-17, 0.218018
 2166, 381.001, 0.975, 8.55479e-22, 3.42192e-17, 0.218018
 2172, 382.001, 0.975, 9.59283e-22, 3.83713e-17, 0.218018
 2178, 383.001, 0.975, 1.07531e-21, 4.30123e-17, 0.218018
 2184, 384.001, 0.975, 1.20494e-21, 4.81978e-17, 0.218018
 2190, 385.001, 0.975, 1.34975e-21, 5.39898e-17, 0.218018
 2196, 386.001, 0.975, 1.51143e-21, 6.0457e-17, 0.218018
 2202, 387.001, 0.975, 1.69189e-21, 6.76758e-17, 0.218018
 2208, 388.001, 0.975, 1.89326e-21, 7.57306e-17, 0.218018
 2214, 389.001, 0.975, 2.11788e-21, 8.47153e-17, 0.218018
 2220, 390.001, 0.975, 2.36835e-21, 9.47339e-17, 0.218018
 2226, 391.001, 0.975, 2.64754e-21, 1.05902e-16, 0.218018
 2232, 392.001, 0.975, 2.95866e-21, 1.18346e-16, 0.218018
 2238, 393.001, 0.975, 3.30523e-21, 1.32209e-16, 0.218018
 2244, 394.001, 0.975, 3.69118e-21, 1.47647e-16, 0.218018
 2250, 395.001, 0.975, 4.12082e-21, 1.64833e-16, 0.218018
 2256, 396.001, 0.975, 4.59897e-21, 1.83959e-16, 0.218018
 2262, 397.001, 0.975, 5.13091e-21, 2.05236e-16, 0.218018
 2268, 398.001, 0.975, 5.72252e-21, 2.28901e-16, 0.218018
 2274, 399.001, 0.975, 6.38026e-21, 2.5521e-16, 0.218018
 2280, 400.001, 0.975, 7.11131e-21, 2.84452e-16, 0.218018
 2286, 401.001, 0.975, 7.92357e-21, 3.16943e-16, 0.218018
 2292, 402.001, 0.975, 8.82577e-21, 3.53031e-16, 0.218018
 2298, 403.001, 0.975, 9.82758e-21, 3.93103e-16, 0.218018
 2304, 404.001, 0.975, 1.09396e-20, 4.37585e-16, 0.218018
 2310, 405.001, 0.975, 1.21736e-20, 4.86946e-16, 0.218018
 2316, 406.001, 0.975, 1.35426e-20, 5.41704e-16, 0.218018
 2322, 407.001, 0.975, 1.50608e-20, 6.02432e-16, 0.218018
 2328, 408.001, 0.975, 1.67439e-20, 6.69758e-16, 0.218018
 2334, 409.001, 0.975, 1.86094e-20, 7.44377e-16, 0.218018
 2340, 410.001, 0.975, 2.06764e-20, 8.27054e-16, 0.218018
 2346, 411.001, 0.975, 2.29658e-20, 9.18631e-16, 0.218018
 2352, 412.001, 0.975, 2.55009e-20, 1.02004e-15, 0.218018
 2358, 413.001, 0.975, 2.83072e-20, 1.13229e-15, 0.218018
 2364, 414.001, 0.975, 3.14128e-20, 1.25651e-15, 0.218018
 2370, 415.001, 0.975, 3.48485e-20, 1.39394e-15, 0.218018
 2376, 416.001, 0.975, 3.86484e-20, 1.54594e-15, 0.218018
 2382, 417.001, 0.975, 4.28498e-20, 1.71399e-15, 0.218018
 2388, 418.001, 0.975, 4.74937e-20, 1.89975e-15, 0.218018
 2394, 419.001, 0.975, 5.26253e-20, 2.10501e-15, 0.218018
 2400, 420.001, 0.975, 5.8294e-20, 2.33176e-15, 0.218018
 2406, 421.001, 0.975, 6.45544e-20, 2.58218e-15, 0.218018
 2412, 422.001, 0.975, 7.14661e-20, 2.85864e-15, 0.218018
 2418, 423.001, 0.975, 7.90947e-20, 3.16379e-15, 0.218018
 2424, 424.001, 0.975, 8.75121e-20, 3.50049e-15, 0.218018
 2430, 425.001, 0.975, 9.67973e-20, 3.87189e-15, 0.218018
 2436, 426.001, 0.975, 1.07037e-19, 4.28147e-15, 0.218018
 2442, 427.001, 0.975, 1.18325e-19, 4.73302e-15, 0.218018
 2448, 428.001, 0.975, 1.30767e-19, 5.23069e-15, 0.218018
 2454, 429.001, 0.975, 1.44476e-19, 5.77905e-15, 0.218018
 2460, 430.001, 0.975, 1.59577e-19, 6.38308e-15, 0.218018
 2466, 431.001, 0.975, 1.76206e-19, 7.04826e-15, 0.218018
 2472, 432.001, 0.975, 1.94514e-19, 7.78057e-15, 0.218018
 2478, 433.001, 0.975, 2.14664e-19, 8.58655e-15, 0.218018
 2484, 434.001, 0.975, 2.36835e-19, 9.47339e-15, 0.218018
 2490, 435.001, 0.975, 2.61223e-19, 1.04489e-14, 0.218018
 2496, 436.001, 0.975, 2.88043e-19, 1.15217e-14, 0.218018
 2502, 437.001, 0.975, 3.1753e-19, 1.27012e-14, 0.218018
 2508, 438.001, 0.975, 3.49938e-19, 1.39975e-14, 0.218018
 2514, 439.001, 0.975, 3.8555e-19, 1.5422e-14, 0.218018
 2520, 440.001, 0.975, 4.2467e-19, 1.69868e-14, 0.218018
 2526, 441.001, 0.975, 4.67633e-19, 1.87053e-14, 0.218018
 2532, 442.001, 0.975, 5.14803e-19, 2.05921e-14, 0.218018
 2538, 443.001, 0.975, 5.6658e-19, 2.26632e-14, 0.218018
 2544, 444.001, 0.975, 6.23397e-19, 2.49359e-14, 0.218018
 2550, 445.001, 0.975, 6.85729e-19, 2.74292e-14, 0.218018
 2556, 446.001, 0.975, 7.54094e-19, 3.01638e-14, 0.218018
 2562, 447.001, 0.975, 8.29056e-19, 3.31623e-14, 0.218018
 2568, 448.001, 0.975, 9.11231e-19, 3.64492e-14, 0.218018
 2574, 449.001, 0.975, 1.00129e-18, 4.00515e-14, 0.218018
 2580, 450.001, 0.975, 1.09996e-18, 4.39983e-14, 0.218018
 2586, 451.001, 0.975, 1.20804e-18, 4.83216e-14, 0.218018
 2592, 452.001, 0.975, 1.3264e-18, 5.30558e-14, 0.218018
 2598, 453.001, 0.975, 1.45597e-18, 5.8239e-14, 0.218018
 2604, 454.001, 0.975, 1.5978e-18, 6.39121e-14, 0.218018
 2610, 455.001, 0.975, 1.753e-18, 7.01199e-14, 0.218018
 2616, 456.001, 0.975, 1.92278e-18, 7.69111e-14, 0.218018
 2622, 457.001, 0.975, 2.10847e-18, 8.43388e-14, 0.218018
 2628, 458.001, 0.975, 2.31151e-18, 9.24604e-14, 0.218018
 2634, 459.001, 0.975, 2.53347e-18, 1.01339e-13, 0.218018
 2640, 460.001, 0.975, 2.77604e-18, 1.11042e-13, 0.218018
 2646, 461.001, 0.975, 3.04108e-18, 1.21643e-13, 0.218018
 2652, 462.001, 0.975, 3.3306e-18, 1.33224e-13, 0.218018
 2658, 463.001, 0.975, 3.64679e-18, 1.45871e-13, 0.218018
 2664, 464.001, 0.975, 3.99201e-18, 1.5968e-13, 0.218018
 2670, 465.001, 0.975, 4.36883e-18, 1.74753e-13, 0.218018
 2676, 466.001, 0.975, 4.78006e-18, 1.91202e-13, 0.218018
 2682, 467.001, 0.975, 5.22873e-18, 2.09149e-13, 0.218018
 2688, 468.001, 0.975, 5.71812e-18, 2.28725e-13, 0.218018
 2694, 469.001, 0.975, 6.25182e-18, 2.50073e-13, 0.218018
 2700, 470.001, 0.975, 6.83368e-18, 2.73347e-13, 0.218018
 2706, 471.001, 0.975, 7.46792e-18, 2.98717e-13, 0.218018
 2712, 472.001, 0.975, 8.15907e-18, 3.26363e-13, 0.218018
 2718, 473.001, 0.975, 8.91207e-18, 3.56483e-13, 0.218018
 2724, 474.001, 0.975, 9.73227e-18, 3.89291e-13, 0.218018
 2730, 475.001, 0.975, 1.06255e-17, 4.25018e-13, 0.218018
 2736, 476.001, 0.975, 1.15979e-17, 4.63916e-13, 0.218018
 2742, 477.001, 0.975, 1.26564e-17, 5.06255e-13, 0.218018
 2748, 478.001, 0.975, 1.38082e-17, 5.52329e-13, 0.218018
 2754, 479.001, 0.975, 1.50614e-17, 6.02458e-13, 0.218018
 2760, 480.001, 0.975, 1.64246e-17, 6.56984e-13, 0.218018
 2766, 481.001, 0.975, 1.7907e-17, 7.16281e-13, 0.218018
 2772, 482.001, 0.975, 1.95188e-17, 7.80751e-13, 0.218018
 2778, 483.001, 0.975, 2.12707e-17, 8.5083e-13, 0.218018
 2784, 484.001, 0.975, 2.31747e-17, 9.26988e-13, 0.218018
 2790, 485.001, 0.975, 2.52434e-17, 1.00974e-12, 0.218018
 2796, 486.001, 0.975, 2.74905e-17, 1.09962e-12, 0.218018
 2802, 487.001, 0.975, 2.9931e-17, 1.19724e-12, 0.218018
 2808, 488.001, 0.975, 3.25808e-17, 1.30323e-12, 0.218018
 2814, 489.001, 0.975, 3.54573e-17, 1.41829e-12, 0.218018
 2820, 490.001, 0.975, 3.85793e-17, 1.54317e-12, 0.218018
 2826, 491.001, 0.975, 4.19668e-17, 1.67867e-12, 0.218018
 2832, 492.001, 0.975, 4.56418e-17, 1.82567e-12, 0.218018
 2838, 493.001, 0.975, 4.96277e-17, 1.98511e-12, 0.218018
 2844, 494.001, 0.975, 5.39499e-17, 2.158e-12, 0.218018
 2850, 495.001, 0.975, 5.86358e-17, 2.34543e-12, 0.218018
 2856, 496.001, 0.975, 6.37149e-17, 2.5486e-12, 0.218018
 2862, 497.001, 0.975, 6.9219e-17, 2.76876e-12, 0.218018
 2868, 498.001, 0.975, 7.51824e-17, 3.0073e-12, 0.218018
 2874, 499.001, 0.975, 8.16422e-17, 3.26569e-12, 0.218018
 2880, 500.001, 0.975, 8.8638e-17, 3.54552e-12, 0.218018
 2886, 501.001, 0.975, 9.62129e-17, 3.84852e-12, 0.218018
 2892, 502.001, 0.975, 1.04413e-16, 4.17652e-12, 0.218018
 2898, 503.001, 0.975, 1.13288e-16, 4.53153e-12, 0.218018
 2904, 504.001, 0.975, 1.22892e-16, 4.91568e-12, 0.218018
 2910, 505.001, 0.975, 1.33282e-16, 5.33127e-12, 0.218018
 2916, 506.001, 0.975, 1.4452e-16, 5.78081e-12, 0.218018
 2922, 507.001, 0.975, 1.56674e-16, 6.26694e-12, 0.218018
 2928, 508.001, 0.975, 1.69814e-16, 6.79255e-12, 0.218018
 2934, 509.001, 0.975, 1.84018e-16, 7.36073e-12, 0.218018
 2940, 510.001, 0.975, 1.9937e-16, 7.9748e-12, 0.218018
 2946, 511.001, 0.975, 2.15958e-16, 8.63834e-12, 0.218018
 2952, 512.001, 0.975, 2.33879e-16, 9.35517e-12, 0.218018
 2958, 513.001, 0.975, 2.53236e-16, 1.01294e-11, 0.218018
 2964, 514.001, 0.975, 2.74139e-16, 1.09656e-11, 0.218018
 2970, 515.001, 0.975, 2.96708e-16, 1.18683e-11, 0.218018
 2976, 516.001, 0.975, 3.21071e-16, 1.28428e-11, 0.218018
 2982, 517.001, 0.975, 3.47365e-16, 1.38946e-11, 0.218018
 2988, 518.001, 0.975, 3.75737e-16, 1.50295e-11, 0.218018
 2994, 519.001, 0.975, 4.06346e-16, 1.62539e-11, 0.218018
 3000, 520.001, 0.975, 4.39362e-16, 1.75745e-11, 0.218018
 3006, 521.001, 0.975, 4.74967e-16, 1.89987e-11, 0.218018
 3012, 522.001, 0.975, 5.13357e-16, 2.05343e-11, 0.218018
 3018, 523.001, 0.975, 5.54741e-16, 2.21897e-11, 0.218018
 3024, 524.001, 0.975, 5.99345e-16, 2.39738e-11, 0.218018
 3030, 525.001, 0.975, 6.4741e-16, 2.58964e-11, 0.218018
 3036, 526.001, 0.975, 6.99195e-16, 2.79678e-11, 0.218018
 3042, 527.001, 0.975, 7.54976e-16, 3.0199e-11, 0.218018
 3048, 528.001, 0.975, 8.15051e-16, 3.26021e-11, 0.218018
 3054, 529.001, 0.975, 8.79739e-16, 3.51896e-11, 0.218018
 3060, 530.001, 0.975, 9.4938e-16, 3.79752e-11, 0.218018
 3066, 531.001, 0.975, 1.02434e-15, 4.09736e-11, 0.218018
 3072, 532.001, 0.975, 1.10501e-15, 4.42004e-11, 0.218018
 3078, 533.001, 0.975, 1.19181e-15, 4.76724e-11, 0.218018
 3084, 534.001, 0.975, 1.28518e-15, 5.14074e-11, 0.218018
 3090, 535.001, 0.975, 1.38562e-15, 5.54247e-11, 0.218018
 3096, 536.001, 0.975, 1.49362e-15, 5.97449e-11, 0.218018
 3102, 537.001, 0.975, 1.60975e-15, 6.43898e-11, 0.218018
 3108, 538.001, 0.975, 1.73458e-15, 6.93831e-11, 0.218018
 3114, 539.001, 0.975, 1.86875e-15, 7.47499e-11, 0.218018
 3120, 540.001, 0.975, 2.01292e-15, 8.0517e-11, 0.218018
 3126, 541.001, 0.975, 2.16783e-15, 8.67132e-11, 0.218018
 3132, 542.001, 0.975, 2.33423e-15, 9.33693e-11, 0.218018
 3138, 543.001, 0.975, 2.51295e-15, 1.00518e-10, 0.218018
 3144, 544.001, 0.975, 2.70486e-15, 1.08195e-10, 0.218018
 3150, 545.001, 0.975, 2.91091e-15, 1.16436e-10, 0.218018
 3156, 546.001, 0.975, 3.13209e-15, 1.25284e-10, 0.218018
 3162, 547.001, 0.975, 3.36948e-15, 1.34779e-10, 0.218018
 3168, 548.001, 0.975, 3.62421e-15, 1.44968e-10, 0.218018
 3174, 549.001, 0.975, 3.89751e-15, 1.559e-10, 0.218018
 3180, 550.001, 0.975, 4.19068e-15, 1.67627e-10, 0.218018
 3186, 551.001, 0.975, 4.50511e-15, 1.80204e-10, 0.218018
 3192, 552.001, 0.975, 4.84228e-15, 1.93691e-10, 0.218018
 3198, 553.001, 0.975, 5.20377e-15, 2.08151e-10, 0.218018
 3204, 554.001, 0.975, 5.59128e-15, 2.23651e-10, 0.218018
 3210, 555.001, 0.975, 6.0066e-15, 2.40264e-10, 0.218018
 3216, 556.001, 0.975, 6.45166e-15, 2.58066e-10, 0.218018
 3222, 557.001, 0.975, 6.9285e-15, 2.7714e-10, 0.218018
 3228, 558.001, 0.975, 7.43931e-15, 2.97572e-10, 0.218018
 3234, 559.001, 0.975, 7.98641e-15, 3.19457e-10, 0.218018
 3240, 560.001, 0.975, 8.57229e-15, 3.42892e-10, 0.218018
 3246, 561.001, 0.975, 9.19959e-15, 3.67983e-10, 0.218018
 3252, 562.001, 0.975, 9.87111e-15, 3.94845e-10, 0.218018
 3258, 563.001, 0.975, 1.05899e-14, 4.23595e-10, 0.218018
 3264, 564.001, 0.975, 1.13591e-14, 4.54363e-10, 0.218018
 3270, 565.001, 0.975, 1.21821e-14, 4.87284e-10, 0.218018
 3276, 566.001, 0.975, 1.30626e-14, 5.22503e-10, 0.218018
 3282, 567.001, 0.975, 1.40044e-14, 5.60174e-10, 0.218018
 3288, 568.001, 0.975, 1.50116e-14, 6.00462e-10, 0.218018
 3294, 569.001, 0.975, 1.60885e-14, 6.43542e-10, 0.218018
 3300, 570.001, 0.975, 1.724e-14, 6.89599e-10, 0.218018
 3306, 571.001, 0.975, 1.84708e-14, 7.38831e-10, 0.218018
 3312, 572.001, 0.975, 1.97862e-14, 7.91449e-10, 0.218018
 3318, 573.001, 0.975, 2.11919e-14, 8.47676e-10, 0.218018
 3324, 574.001, 0.975, 2.26938e-14, 9.07751e-10, 0.218018
 3330, 575.001, 0.975, 2.42981e-14, 9.71926e-10, 0.218018
 3336, 576.001, 0.975, 2.60118e-14, 1.04047e-09, 0.218018
 3342, 577.001, 0.975, 2.78418e-14, 1.11367e-09, 0.218018
 3348, 578.001, 0.975, 2.97958e-14, 1.19183e-09, 0.218018
 3354, 579.001, 0.975, 3.18818e-14, 1.27527e-09, 0.218018
 3360, 580.001, 0.975, 3.41085e-14, 1.36434e-09, 0.218018
 3366, 581.001, 0.975, 3.6485e-14, 1.4594e-09, 0.218018
 3372, 582.001, 0.975, 3.90208e-14, 1.56083e-09, 0.218018
 3378, 583.001, 0.975, 4.17264e-14, 1.66906e-09, 0.218018
 3384, 584.001, 0.975, 4.46126e-14, 1.7845e-09, 0.218018
 3390, 585.001, 0.975, 4.7691e-14, 1.90764e-09, 0.218018
 3396, 586.001, 0.975, 5.09739e-14, 2.03895e-09, 0.218018
 3402, 587.001, 0.975, 5.44743e-14, 2.17897e-09, 0.218018
 3408, 588.001, 0.975, 5.82061e-14, 2.32825e-09, 0.218018
 3414, 589.001, 0.975, 6.21841e-14, 2.48736e-09, 0.218018
 3420, 590.001, 0.975, 6.64237e-14, 2.65695e-09, 0.218018
 3426, 591.001, 0.975, 7.09415e-14, 2.83766e-09, 0.218018
 3432, 592.001, 0.975, 7.57551e-14, 3.03021e-09, 0.218018
 3438, 593.001, 0.975, 8.08831e-14, 3.23532e-09, 0.218018
 3444, 594.001, 0.975, 8.63451e-14, 3.4538e-09, 0.218018
 3450, 595.001, 0.975, 9.21621e-14, 3.68648e-09, 0.218018
 3456, 596.001, 0.975, 9.83563e-14, 3.93425e-09, 0.218018
 3462, 597.001, 0.975, 1.04951e-13, 4.19804e-09, 0.218018
 3468, 598.001, 0.975, 1.11971e-13, 4.47885e-09, 0.218018
 3474, 599.001, 0.975, 1.19443e-13, 4.77773e-09, 0.218018
 3480, 600.001, 0.975, 1.27395e-13, 5.09581e-09, 0.218018
 3486, 601.001, 0.975, 1.35856e-13, 5.43426e-09, 0.218018
 3492, 602.001, 0.975, 1.44858e-13, 5.79433e-09, 0.218018
 3498, 603.001, 0.975, 1.54434e-13, 6.17736e-09, 0.218018
 3504, 604.001, 0.975, 1.64619e-13, 6.58475e-09, 0.218018
 3510, 605.001, 0.975, 1.7545e-13, 7.01798e-09, 0.218018
 3516, 606.001, 0.975, 1.86966e-13, 7.47864e-09, 0.218018
 3522, 607.001, 0.975, 1.99209e-13, 7.96838e-09, 0.218018
 3528, 608.001, 0.975, 2.12224e-13, 8.48897e-09, 0.218018
 3534, 609.001, 0.975, 2.26057e-13, 9.04227e-09, 0.218018
 3540, 610.001, 0.975, 2.40756e-13, 9.63026e-09, 0.218018
 3546, 611.001, 0.975, 2.56375e-13, 1.0255e-08, 0.218018
 3552, 612.001, 0.975, 2.72969e-13, 1.09188e-08, 0.218018
 3558, 613.001, 0.975, 2.90595e-13, 1.16238e-08, 0.218018
 3564, 614.001, 0.975, 3.09316e-13, 1.23727e-08, 0.218018
 3570, 615.001, 0.975, 3.29197e-13, 1.31679e-08, 0.218018
 3576, 616.001, 0.975, 3.50307e-13, 1.40123e-08, 0.218018
 3582, 617.001, 0.975, 3.72718e-13, 1.49087e-08, 0.218018
 3588, 618.001, 0.975, 3.96507e-13, 1.58603e-08, 0.218018
 3594, 619.001, 0.975, 4.21757e-13, 1.68703e-08, 0.218018
 3600, 620.001, 0.975, 4.48552e-13, 1.79421e-08, 0.218018
 3606, 621.001, 0.975, 4.76984e-13, 1.90794e-08, 0.218018
 3612, 622.001, 0.975, 5.07149e-13, 2.02859e-08, 0.218018
 3618, 623.001, 0.975, 5.39147e-13, 2.15659e-08, 0.218018
 3624, 624.001, 0.975, 5.73086e-13, 2.29234e-08, 0.218018
 3630, 625.001, 0.975, 6.09079e-13, 2.43632e-08, 0.218018
 3636, 626.001, 0.975, 6.47245e-13, 2.58898e-08, 0.218018
 3642, 627.001, 0.975, 6.87709e-13, 2.75084e-08, 0.218018
 3648, 628.001, 0.975, 7.30605e-13, 2.92242e-08, 0.218018
 3654, 629.001, 0.975, 7.76072e-13, 3.10429e-08, 0.218018
 3660, 630.001, 0.975, 8.24259e-13, 3.29703e-08, 0.218018
 3666, 631.001, 0.975, 8.7532e-13, 3.50128e-08, 0.218018
 3672, 632.001, 0.975, 9.29422e-13, 3.71769e-08, 0.218018
 3678, 633.001, 0.975, 9.86737e-13, 3.94695e-08, 0.218018
 3684, 634.001, 0.975, 1.04745e-12, 4.18979e-08, 0.218018
 3690, 635.001, 0.975, 1.11175e-12, 4.44699e-08, 0.218018
 3696, 636.001, 0.975, 1.17984e-12, 4.71936e-08, 0.218018
 3702, 637.001, 0.975, 1.25194e-12, 5.00776e-08, 0.218018
 3708, 638.001, 0.975, 1.32827e-12, 5.3131e-08, 0.218018
 3714, 639.001, 0.975, 1.40908e-12, 5.63631e-08, 0.218018
 3720, 640.001, 0.975, 1.49461e-12, 5.97842e-08, 0.218018
 3726, 641.001, 0.975, 1.58512e-12, 6.34047e-08, 0.218018
 3732, 642.001, 0.975, 1.6809e-12, 6.72359e-08, 0.218018
 3738, 643.001, 0.975, 1.78224e-12, 7.12894e-08, 0.218018
 3744, 644.001, 0.975, 1.88944e-12, 7.55777e-08, 0.218018
 3750, 645.001, 0.975, 2.00284e-12, 8.01137e-08, 0.218018
 3756, 646.001, 0.975, 2.12278e-12, 8.49112e-08, 0.218018
 3762, 647.001, 0.975, 2.24961e-12, 8.99846e-08, 0.218018
 3768, 648.001, 0.975, 2.38373e-12, 9.53491e-08, 0.218018
 3774, 649.001, 0.975, 2.52552e-12, 1.01021e-07, 0.218018
 3780, 650.001, 0.975, 2.67541e-12, 1.07016e-07, 0.218018
 3786, 651.001, 0.975, 2.83384e-12, 1.13354e-07, 0.218018
 3792, 652.001, 0.975, 3.00128e-12, 1.20051e-07, 0.218018
 3798, 653.001, 0.975, 3.17822e-12, 1.27129e-07, 0.218018
 3804, 654.001, 0.975, 3.36518e-12, 1.34607e-07, 0.218018
 3810, 655.001, 0.975, 3.56269e-12, 1.42508e-07, 0.218018
 3816, 656.001, 0.975, 3.77134e-12, 1.50853e-07, 0.218018
 3822, 657.001, 0.975, 3.99171e-12, 1.59668e-07, 0.218018
 3828, 658.001, 0.975, 4.22445e-12, 1.68978e-07, 0.218018
 3834, 659.001, 0.975, 4.47021e-12, 1.78809e-07, 0.218018
 3840, 660.001, 0.975, 4.7297e-12, 1.89188e-07, 0.218018
 3846, 661.001, 0.975, 5.00365e-12, 2.00146e-07, 0.218018
 3852, 662.001, 0.975, 5.29282e-12, 2.11713e-07, 0.218018
 3858, 663.001, 0.975, 5.59804e-12, 2.23922e-07, 0.218018
 3864, 664.001, 0.975, 5.92015e-12, 2.36806e-07, 0.218018
 3870, 665.001, 0.975, 6.26004e-12, 2.50402e-07, 0.218018
 3876, 666.001, 0.975, 6.61867e-12, 2.64747e-07, 0.218018
 3882, 667.001, 0.975, 6.99701e-12, 2.7988e-07, 0.218018
 3888, 668.001, 0.975, 7.3961e-12, 2.95844e-07, 0.218018
 3894, 669.001, 0.975, 7.81704e-12, 3.12681e-07, 0.218018
 3900, 670.001, 0.975, 8.26096e-12, 3.30438e-07, 0.218018
 3906, 671.001, 0.975, 8.72907e-12, 3.49163e-07, 0.218018
 3912, 672.001, 0.975, 9.22263e-12, 3.68905e-07, 0.218018
 3918, 673.001, 0.975, 9.74296e-12, 3.89719e-07, 0.218018
 3924, 674.001, 0.975, 1.02915e-11, 4.11658e-07, 0.218018
 3930, 675.001, 0.975, 1.08696e-11, 4.34783e-07, 0.218018
 3936, 676.001, 0.975, 1.14789e-11, 4.59154e-07, 0.218018
 3942, 677.001, 0.975, 1.21209e-11, 4.84836e-07, 0.218018
 3948, 678.001, 0.975, 1.27974e-11, 5.11895e-07, 0.218018
 3954, 679.001, 0.975, 1.35101e-11, 5.40403e-07, 0.218018
 3960, 680.001, 0.975, 1.42608e-11, 5.70433e-07, 0.218018
 3966, 681.001, 0.975, 1.50516e-11, 6.02065e-07, 0.218018
 3972, 682.001, 0.975, 1.58844e-11, 6.35378e-07, 0.218018
 3978, 683.001, 0.975, 1.67615e-11, 6.70459e-07, 0.218018
 3984, 684.001, 0.975, 1.76849e-11, 7.07398e-07, 0.218018
 3990, 685.001, 0.975, 1.86572e-11, 7.46288e-07, 0.218018
 3996, 686.001, 0.975, 1.96807e-11, 7.87228e-07, 0.218018
 4002, 687.001, 0.975, 2.0758e-11, 8.30322e-07, 0.218018
 4008, 688.001, 0.975, 2.18919e-11, 8.75678e-07, 0.218018
 4014, 689.001, 0.975, 2.30852e-11, 9.23409e-07, 0.218018
 4020, 690.001, 0.975, 2.43409e-11, 9.73634e-07, 0.218018
 4026, 691.001, 0.975, 2.5662e-11, 1.02648e-06, 0.218018
 4032, 692.001, 0.975, 2.70518e-11, 1.08207e-06, 0.218018
 4038, 693.001, 0.975, 2.85139e-11, 1.14055e-06, 0.218018
 4044, 694.001, 0.975, 3.00516e-11, 1.20206e-06, 0.218018
 4050, 695.001, 0.975, 3.16689e-11, 1.26675e-06, 0.218018
 4056, 696.001, 0.975, 3.33696e-11, 1.33478e-06, 0.218018
 4062, 697.001, 0.975, 3.51578e-11, 1.40631e-06, 0.218018
 4068, 698.001, 0.975, 3.70378e-11, 1.48151e-06, 0.218018
 4074, 699.001, 0.975, 3.90143e-11, 1.56057e-06, 0.218018
 4080, 700.001, 0.975, 4.10918e-11, 1.64367e-06, 0.218018
 4086, 701.001, 0.975, 4.32753e-11, 1.73101e-06, 0.218018
 4092, 702.001, 0.975, 4.557e-11, 1.8228e-06, 0.218018
 4098, 703.001, 0.975, 4.79813e-11, 1.91925e-06, 0.218018
 4104, 704.001, 0.975, 5.05148e-11, 2.02059e-06, 0.218018
 4110, 705.001, 0.975, 5.31766e-11, 2.12706e-06, 0.218018
 4116, 706.001, 0.975, 5.59727e-11, 2.23891e-06, 0.218018
 4122, 707.001, 0.975, 5.89097e-11, 2.35639e-06, 0.218018
 4128, 708.001, 0.975, 6.19944e-11, 2.47977e-06, 0.218018
 4134, 709.001, 0.975, 6.52337e-11, 2.60935e-06, 0.218018
 4140, 710.001, 0.975, 6.86353e-11, 2.74541e-06, 0.218018
 4146, 711.001, 0.975, 7.22067e-11, 2.88827e-06, 0.218018
 4152, 712.001, 0.975, 7.59562e-11, 3.03825e-06, 0.218018
 4158, 713.001, 0.975, 7.98921e-11, 3.19569e-06, 0.218018
 4164, 714.001, 0.975, 8.40235e-11, 3.36094e-06, 0.218018
 4170, 715.001, 0.975, 8.83594e-11, 3.53438e-06, 0.218018
 4176, 716.001, 0.975, 9.29096e-11, 3.71638e-06, 0.218018
 4182, 717.001, 0.975, 9.76843e-11, 3.90737e-06, 0.218018
 4188, 718.001, 0.975, 1.02694e-10, 4.10776e-06, 0.218018
 4194, 719.001, 0.975, 1.0795e-10, 4.31798e-06, 0.218018
 4200, 720.001, 0.975, 1.13463e-10, 4.53851e-06, 0.218018
 4206, 721.001, 0.975, 1.19246e-10, 4.76983e-06, 0.218018
 4212, 722.001, 0.975, 1.25311e-10, 5.01243e-06, 0.218018
 4218, 723.001, 0.975, 1.31671e-10, 5.26685e-06, 0.218018
 4224, 724.001, 0.975, 1.38341e-10, 5.53363e-06, 0.218018
 4230, 725.001, 0.975, 1.45334e-10, 5.81335e-06, 0.218018
 4236, 726.001, 0.975, 1.52665e-10, 6.1066e-06, 0.218018
 4242, 727.001, 0.975, 1.6035e-10, 6.41402e-06, 0.218018
 4248, 728.001, 0.975, 1.68406e-10, 6.73625e-06, 0.218018
 4254, 729.001, 0.975, 1.76849e-10, 7.07398e-06, 0.218018
 4260, 730.001, 0.975, 1.85698e-10, 7.42792e-06, 0.218018
 4266, 731.001, 0.975, 1.9497e-10, 7.7988e-06, 0.218019
 4272, 732.001, 0.975, 2.04685e-10, 8.18742e-06, 0.218018
 4278, 733.001, 0.975, 2.14864e-10, 8.59456e-06, 0.218018
 4284, 734.001, 0.975, 2.25527e-10, 9.02109e-06, 0.218018
 4290, 735.001, 0.975, 2.36697e-10, 9.46787e-06, 0.218018
 4296, 736.001, 0.975, 2.48396e-10, 9.93582e-06, 0.218018
 4302, 737.001, 0.975, 2.60648e-10, 1.04259e-05, 0.218018
 4308, 738.001, 0.975, 2.73478e-10, 1.09391e-05, 0.218018
 4314, 739.001, 0.975, 2.86913e-10, 1.14765e-05, 0.218019
 4320, 740.001, 0.975, 3.0098e-10, 1.20392e-05, 0.218018
 4326, 741.001, 0.975, 3.15706e-10, 1.26282e-05, 0.218018
 4332, 742.001, 0.975, 3.31121e-10, 1.32449e-05, 0.218018
 4338, 743.001, 0.975, 3.47257e-10, 1.38903e-05, 0.218018
 4344, 744.001, 0.975, 3.64145e-10, 1.45658e-05, 0.218018
 4350, 745.001, 0.975, 3.81819e-10, 1.52727e-05, 0.218018
 4356, 746.001, 0.975, 4.00313e-10, 1.60125e-05, 0.218019
 4362, 747.001, 0.975, 4.19664e-10, 1.67866e-05, 0.218018
 4368, 748.001, 0.975, 4.3991e-10, 1.75964e-05, 0.218019
 4374, 749.001, 0.975, 4.6109e-10, 1.84436e-05, 0.218019
 4380, 750.001, 0.975, 4.83245e-10, 1.93298e-05, 0.218019
 4386, 751.001, 0.975, 5.06419e-10, 2.02567e-05, 0.218019
 4392, 752.001, 0.975, 5.30655e-10, 2.12262e-05, 0.218019
 4398, 753.001, 0.975, 5.56e-10, 2.224e-05, 0.218018
 4404, 754.001, 0.975, 5.82503e-10, 2.33001e-05, 0.218019
 4410, 755.001, 0.975, 6.10215e-10, 2.44086e-05, 0.218019
 4416, 756.001, 0.975, 6.39186e-10, 2.55675e-05, 0.218019
 4422, 757.001, 0.975, 6.69473e-10, 2.67789e-05, 0.218019
 4428, 758.001, 0.975, 7.01132e-10, 2.80453e-05, 0.218019
 4434, 759.001, 0.975, 7.34223e-10, 2.93689e-05, 0.218019
 4440, 760.001, 0.975, 7.68807e-10, 3.07523e-05, 0.218018
 4446, 761.001, 0.975, 8.04948e-10, 3.21979e-05, 0.218019
 4452, 762.001, 0.975, 8.42713e-10, 3.37085e-05, 0.218019
 4458, 763.001, 0.975, 8.82172e-10, 3.52869e-05, 0.218019
 4464, 764.001, 0.975, 9.23396e-10, 3.69359e-05, 0.218019
 4470, 765.001, 0.975, 9.66463e-10, 3.86585e-05, 0.218019
 4476, 766.001, 0.975, 1.01145e-09, 4.0458e-05, 0.218019
 4482, 767.001, 0.975, 1.05844e-09, 4.23375e-05, 0.218019
 4488, 768.001, 0.975, 1.10751e-09, 4.43004e-05, 0.218019
 4494, 769.001, 0.975, 1.15876e-09, 4.63504e-05, 0.218019
 4500, 770.001, 0.975, 1.21227e-09, 4.84909e-05, 0.218019
 4506, 771.001, 0.975, 1.26815e-09, 5.0726e-05, 0.218019
 4512, 772.001, 0.975, 1.32649e-09, 5.30595e-05, 0.218019
 4518, 773.001, 0.975, 1.38739e-09, 5.54956e-05, 0.218019
 4524, 774.001, 0.975, 1.45096e-09, 5.80385e-05, 0.218019
 4530, 775.001, 0.975, 1.51732e-09, 6.06928e-05, 0.218019
 4536, 776.001, 0.975, 1.58658e-09, 6.3463e-05, 0.218019
 4542, 777.001, 0.975, 1.65885e-09, 6.63541e-05, 0.218019
 4548, 778.001, 0.975, 1.73427e-09, 6.9371e-05, 0.218019
 4554, 779.001, 0.975, 1.81297e-09, 7.25189e-05, 0.218019
 4560, 780.001, 0.975, 1.89508e-09, 7.58033e-05, 0.218019
 4566, 781.001, 0.975, 1.98074e-09, 7.92298e-05, 0.218019
 4572, 782.001, 0.975, 2.0701e-09, 8.28042e-05, 0.218019
 4578, 783.001, 0.975, 2.16332e-09, 8.65326e-05, 0.218019
 4584, 784.001, 0.975, 2.26053e-09, 9.04214e-05, 0.218019
 4590, 785.001, 0.975, 2.36193e-09, 9.44771e-05, 0.218019
 4596, 786.001, 0.975, 2.46766e-09, 9.87065e-05, 0.218019
 4602, 787.001, 0.975, 2.57792e-09, 0.000103117, 0.218019
 4608, 788.001, 0.975, 2.69288e-09, 0.000107715, 0.218019
 4614, 789.001, 0.975, 2.81274e-09, 0.000112509, 0.218019
 4620, 790.001, 0.975, 2.93769e-09, 0.000117507, 0.218019
 4626, 791.001, 0.975, 3.06794e-09, 0.000122717, 0.218019
 4632, 792.001, 0.975, 3.2037e-09, 0.000128148, 0.218019
 4638, 793.001, 0.975, 3.3452e-09, 0.000133808, 0.218019
 4644, 794.001, 0.975, 3.49267e-09, 0.000139707, 0.218019
 4650, 795.001, 0.974999, 3.64634e-09, 0.000145854, 0.218019
 4656, 796.001, 0.974999, 3.80647e-09, 0.000152259, 0.218019
 4662, 797.001, 0.974999, 3.97331e-09, 0.000158932, 0.218019
 4668, 798.001, 0.974999, 4.14713e-09, 0.000165885, 0.218019
 4674, 799.001, 0.974999, 4.32821e-09, 0.000173129, 0.218019
 4680, 800.001, 0.974999, 4.51684e-09, 0.000180674, 0.218019