File: examples/Birch_TGA_Example/Work/Cone_arvlop4v/birch_tga_1step_2_tga.csv
s,C,g/g,1/s,W/g,W/g
Time,Temp,Mass,MLR,MCC,DSC
 30, 21.0001, 0.999987, 4.80453e-07, 0.0000000E+000, 0.0484218
 60, 22.0001, 0.999971, 5.51532e-07, 0.0000000E+000, 0.0485805
 90, 23.0001, 0.999953, 6.32482e-07, 0.0000000E+000, 0.0487612
 120, 24.0001, 0.999933, 7.24574e-07, 0.0000000E+000, 0.0489667
 150, 25.0001, 0.99991, 8.29223e-07, 0.0000000E+000, 0.0492002
 180, 26.0001, 0.999883, 9.4801e-07, 0.0000000E+000, 0.0494653
 210, 27.0001, 0.999853, 1.08269e-06, 0.0000000E+000, 0.0497658
 240, 28.0001, 0.999818, 1.2352e-06, 0.0000000E+000, 0.0501061
 270, 29.0001, 0.999778, 1.40771e-06, 0.0000000E+000, 0.0504909
 300, 30.0001, 0.999733, 1.60258e-06, 0.0000000E+000, 0.0509255
 330, 31.0001, 0.999682, 1.82243e-06, 0.0000000E+000, 0.0514158
 360, 32.0001, 0.999624, 2.07013e-06, 0.0000000E+000, 0.0519682
 390, 33.0001, 0.999557, 2.34882e-06, 0.0000000E+000, 0.0525895
 420, 34.0001, 0.999482, 2.66189e-06, 0.0000000E+000, 0.0532874
 450, 35.0001, 0.999397, 3.01305e-06, 0.0000000E+000, 0.0540701
 480, 36.0001, 0.999301, 3.40628e-06, 0.0000000E+000, 0.0549465
 510, 37.0001, 0.999193, 3.84585e-06, 0.0000000E+000, 0.0559259
 540, 38.0001, 0.99907, 4.3363e-06, 0.0000000E+000, 0.0570186
 570, 39.0001, 0.998932, 4.88242e-06, 0.0000000E+000, 0.058235
 600, 40.0001, 0.998776, 5.48922e-06, 0.0000000E+000, 0.0595863
 630, 41.0001, 0.998602, 6.16185e-06, 0.0000000E+000, 0.0610839
 660, 42.0001, 0.998406, 6.90557e-06, 0.0000000E+000, 0.0627394
 690, 43.0001, 0.998187, 7.72561e-06, 0.0000000E+000, 0.0645643
 720, 44.0001, 0.997942, 8.62708e-06, 0.0000000E+000, 0.0665699
 750, 45.0001, 0.997668, 9.61477e-06, 0.0000000E+000, 0.0687666
 780, 46.0001, 0.997364, 1.06929e-05, 0.0000000E+000, 0.0711637
 810, 47.0001, 0.997026, 1.18651e-05, 0.0000000E+000, 0.0737688
 840, 48.0001, 0.996651, 1.31337e-05, 0.0000000E+000, 0.076587
 870, 49.0001, 0.996237, 1.44998e-05, 0.0000000E+000, 0.0796201
 900, 50.0001, 0.99578, 1.59624e-05, 0.0000000E+000, 0.0828659
 930, 51.0001, 0.995278, 1.75185e-05, 0.0000000E+000, 0.0863168
 960, 52.0001, 0.994728, 1.9162e-05, 0.0000000E+000, 0.0899588
 990, 53.0001, 0.994127, 2.08834e-05, 0.0000000E+000, 0.09377
 1020, 54.0001, 0.993474, 2.26693e-05, 0.0000000E+000, 0.0977197
 1050, 55.0001, 0.992767, 2.45015e-05, 0.0000000E+000, 0.101767
 1080, 56.0001, 0.992004, 2.63566e-05, 0.0000000E+000, 0.105858
 1110, 57.0001, 0.991185, 2.82058e-05, 0.0000000E+000, 0.109927
 1140, 58.0001, 0.990312, 3.0014e-05, 0.0000000E+000, 0.113897
 1170, 59.0001, 0.989385, 3.17404e-05, 0.0000000E+000, 0.117674
 1200, 60.0001, 0.988409, 3.33383e-05, 0.0000000E+000, 0.121153
 1230, 61.0001, 0.987387, 3.47561e-05, 0.0000000E+000, 0.124218
 1260, 62.0001, 0.986326, 3.59385e-05, 0.0000000E+000, 0.126745
 1290, 63.0001, 0.985233, 3.68283e-05, 0.0000000E+000, 0.128606
 1320, 64.0001, 0.98412, 3.73693e-05, 0.0000000E+000, 0.129674
 1350, 65.0001, 0.982995, 3.75093e-05, 0.0000000E+000, 0.129834
 1380, 66.0001, 0.981873, 3.72041e-05, 0.0000000E+000, 0.128986
 1410, 67.0001, 0.980768, 3.6422e-05, 0.0000000E+000, 0.127062
 1440, 68.0001, 0.979693, 3.5148e-05, 0.0000000E+000, 0.124029
 1470, 69.0001, 0.978664, 3.3388e-05, 0.0000000E+000, 0.119902
 1500, 70.0001, 0.977694, 3.11719e-05, 0.0000000E+000, 0.114752
 1530, 71.0001, 0.976798, 2.85552e-05, 0.0000000E+000, 0.108706
 1560, 72.0001, 0.975984, 2.56186e-05, 0.0000000E+000, 0.101947
 1590, 73.0001, 0.975263, 2.24643e-05, 0.0000000E+000, 0.0947086
 1620, 74.0001, 0.974637, 1.92104e-05, 0.0000000E+000, 0.0872584
 1650, 75.0001, 0.97411, 1.59822e-05, 0.0000000E+000, 0.07988
 1680, 76.0001, 0.973677, 1.29016e-05, 0.0000000E+000, 0.0728489
 1710, 77.0001, 0.973333, 1.00765e-05, 0.0000000E+000, 0.0664084
 1740, 78.0001, 0.973069, 7.59038e-06, 0.0000000E+000, 0.060746
 1770, 79.0001, 0.972874, 5.49563e-06, 0.0000000E+000, 0.0559788
 1800, 80.0001, 0.972735, 3.81018e-06, 0.0000000E+000, 0.0521458
 1830, 81.0001, 0.972641, 2.51929e-06, 0.0000000E+000, 0.0492118
 1860, 82.0001, 0.972581, 1.58158e-06, 0.0000000E+000, 0.0470816
 1890, 83.0001, 0.972543, 9.38173e-07, 0.0000000E+000, 0.0456206
 1920, 84.0001, 0.972522, 5.2309e-07, 0.0000000E+000, 0.0446784
 1950, 85.0001, 0.97251, 2.72579e-07, 0.0000000E+000, 0.04411
 1980, 86.0001, 0.972505, 1.31928e-07, 0.0000000E+000, 0.0437909
 2010, 87.0001, 0.972502, 5.89092e-08, 0.0000000E+000, 0.0436254
 2040, 88.0001, 0.972501, 2.40911e-08, 0.0000000E+000, 0.0435464
 2070, 89.0001, 0.9725, 8.95183e-09, 0.0000000E+000, 0.0435121
 2100, 90.0001, 0.9725, 2.99648e-09, 0.0000000E+000, 0.0434986
 2130, 91.0001, 0.9725, 8.95175e-10, 0.0000000E+000, 0.0434938
 2160, 92.0001, 0.9725, 2.36271e-10, 0.0000000E+000, 0.0434924
 2190, 93.0001, 0.9725, 5.44967e-11, 0.0000000E+000, 0.0434919
 2220, 94.0001, 0.9725, 1.08553e-11, 0.0000000E+000, 0.0434918
 2250, 95.0001, 0.9725, 1.84359e-12, 0.0000000E+000, 0.0434918
 2280, 96.0001, 0.9725, 2.63279e-13, 0.0000000E+000, 0.0434918
 2310, 97.0001, 0.9725, 3.11454e-14, 0.0000000E+000, 0.0434918
 2340, 98.0001, 0.9725, 3.00311e-15, 0.0000000E+000, 0.0434918
 2370, 99.0001, 0.9725, 2.31931e-16, 0.0000000E+000, 0.0434918
 2400, 100, 0.9725, 1.40786e-17, 0.0000000E+000, 0.0434918
 2430, 101, 0.9725, 6.58164e-19, 0.0000000E+000, 0.0434918
 2460, 102, 0.9725, 2.31818e-20, 0.0000000E+000, 0.0434918
 2490, 103, 0.9725, 6.00778e-22, 0.0000000E+000, 0.0434918
 2520, 104, 0.9725, 1.11675e-23, 0.0000000E+000, 0.0434918
 2550, 105, 0.9725, 1.44856e-25, 0.0000000E+000, 0.0434918
 2580, 106, 0.9725, 1.27292e-27, 0.0000000E+000, 0.0434918
 2610, 107, 0.9725, 7.34029e-30, 0.0000000E+000, 0.0434918
 2640, 108, 0.9725, 2.68402e-32, 0.0000000E+000, 0.0434918
 2670, 109, 0.9725, 5.99802e-35, 0.0000000E+000, 0.0434918
 2700, 110, 0.9725, 7.87341e-38, 0.0000000E+000, 0.0434918
 2730, 111, 0.9725, 0.0000000E+000, 0.0000000E+000, 0.0434918
 2760, 112, 0.9725, 0.0000000E+000, 0.0000000E+000, 0.0434918
 2790, 113, 0.9725, 0.0000000E+000, 0.0000000E+000, 0.0434918
 2820, 114, 0.9725, 0.0000000E+000, 0.0000000E+000, 0.0434918
 2850, 115, 0.9725, 0.0000000E+000, 0.0000000E+000, 0.0434918
 2880, 116, 0.9725, 0.0000000E+000, 0.0000000E+000, 0.0434918
 2910, 117, 0.9725, 0.0000000E+000, 0.0000000E+000, 0.0434918
 2940, 118, 0.9725, 0.0000000E+000, 0.0000000E+000, 0.0434918
 2970, 119, 0.9725, 0.0000000E+000, 0.0000000E+000, 0.0434918
 3000, 120, 0.9725, 0.0000000E+000, 0.0000000E+000, 0.0434918
 3030, 121, 0.9725, 0.0000000E+000, 0.0000000E+000, 0.0434918
 3060, 122, 0.9725, 0.0000000E+000, 1.47903e-38, 0.0434918
 3090, 123, 0.9725, 0.0000000E+000, 2.02369e-38, 0.0434918
 3120, 124, 0.9725, 0.0000000E+000, 2.76457e-38, 0.0434918
 3150, 125, 0.9725, 0.0000000E+000, 3.77078e-38, 0.0434918
 3180, 126, 0.9725, 0.0000000E+000, 5.13521e-38, 0.0434918
 3210, 127, 0.9725, 0.0000000E+000, 6.98256e-38, 0.0434918
 3240, 128, 0.9725, 0.0000000E+000, 9.47996e-38, 0.0434918
 3270, 129, 0.9725, 0.0000000E+000, 1.2851e-37, 0.0434918
 3300, 130, 0.9725, 0.0000000E+000, 1.73945e-37, 0.0434918
 3330, 131, 0.9725, 0.0000000E+000, 2.35092e-37, 0.0434918
 3360, 132, 0.9725, 0.0000000E+000, 3.17261e-37, 0.0434918
 3390, 133, 0.9725, 0.0000000E+000, 4.27519e-37, 0.0434918
 3420, 134, 0.9725, 0.0000000E+000, 5.75251e-37, 0.0434918
 3450, 135, 0.9725, 0.0000000E+000, 7.72907e-37, 0.0434918
 3480, 136, 0.9725, 0.0000000E+000, 1.03698e-36, 0.0434918
 3510, 137, 0.9725, 0.0000000E+000, 1.38928e-36, 0.0434918
 3540, 138, 0.9725, 0.0000000E+000, 1.85863e-36, 0.0434918
 3570, 139, 0.9725, 0.0000000E+000, 2.48304e-36, 0.0434918
 3600, 140, 0.9725, 0.0000000E+000, 3.31256e-36, 0.0434918
 3630, 141, 0.9725, 0.0000000E+000, 4.41306e-36, 0.0434918
 3660, 142, 0.9725, 0.0000000E+000, 5.87105e-36, 0.0434918
 3690, 143, 0.9725, 0.0000000E+000, 7.80003e-36, 0.0434918
 3720, 144, 0.9725, 0.0000000E+000, 1.03487e-35, 0.0434918
 3750, 145, 0.9725, 0.0000000E+000, 1.37115e-35, 0.0434918
 3780, 146, 0.9725, 0.0000000E+000, 1.81428e-35, 0.0434918
 3810, 147, 0.9725, 0.0000000E+000, 2.39741e-35, 0.0434918
 3840, 148, 0.9725, 0.0000000E+000, 3.16379e-35, 0.0434918
 3870, 149, 0.9725, 0.0000000E+000, 4.16967e-35, 0.0434918
 3900, 150, 0.9725, 0.0000000E+000, 5.48818e-35, 0.0434918
 3930, 151, 0.9725, 0.0000000E+000, 7.21427e-35, 0.0434918
 3960, 152, 0.9725, 0.0000000E+000, 9.47105e-35, 0.0434918
 3990, 153, 0.9725, 0.0000000E+000, 1.24179e-34, 0.0434918
 4020, 154, 0.9725, 0.0000000E+000, 1.62611e-34, 0.0434918
 4050, 155, 0.9725, 0.0000000E+000, 2.12668e-34, 0.0434918
 4080, 156, 0.9725, 0.0000000E+000, 2.77787e-34, 0.0434918
 4110, 157, 0.9725, 0.0000000E+000, 3.62395e-34, 0.0434918
 4140, 158, 0.9725, 1.18048e-38, 4.7219e-34, 0.0434918
 4170, 159, 0.9725, 1.53624e-38, 6.14497e-34, 0.0434918
 4200, 160, 0.9725, 1.9968e-38, 7.9872e-34, 0.0434918
 4230, 161, 0.9725, 2.5923e-38, 1.03692e-33, 0.0434918
 4260, 162, 0.9725, 3.36135e-38, 1.34454e-33, 0.0434918
 4290, 163, 0.9725, 4.35337e-38, 1.74135e-33, 0.0434918
 4320, 164, 0.9725, 5.63149e-38, 2.2526e-33, 0.0434918
 4350, 165, 0.9725, 7.27631e-38, 2.91052e-33, 0.0434918
 4380, 166, 0.9725, 9.39056e-38, 3.75623e-33, 0.0434918
 4410, 167, 0.9725, 1.21051e-37, 4.84205e-33, 0.0434918
 4440, 168, 0.9725, 1.55864e-37, 6.23457e-33, 0.0434918
 4470, 169, 0.9725, 2.0046e-37, 8.01839e-33, 0.0434918
 4500, 170, 0.9725, 2.57522e-37, 1.03009e-32, 0.0434918
 4530, 171, 0.9725, 3.30455e-37, 1.32182e-32, 0.0434918
 4560, 172, 0.9725, 4.23569e-37, 1.69427e-32, 0.0434918
 4590, 173, 0.9725, 5.42315e-37, 2.16926e-32, 0.0434918
 4620, 174, 0.9725, 6.93585e-37, 2.77434e-32, 0.0434918
 4650, 175, 0.9725, 8.86075e-37, 3.5443e-32, 0.0434918
 4680, 176, 0.9725, 1.13075e-36, 4.52301e-32, 0.0434918
 4710, 177, 0.9725, 1.44143e-36, 5.76574e-32, 0.0434918
 4740, 178, 0.9725, 1.8355e-36, 7.342e-32, 0.0434918
 4770, 179, 0.9725, 2.3348e-36, 9.33919e-32, 0.0434918
 4800, 180, 0.9725, 2.96677e-36, 1.18671e-31, 0.0434918
 4830, 181, 0.9725, 3.76582e-36, 1.50633e-31, 0.0434918
 4860, 182, 0.9725, 4.77507e-36, 1.91003e-31, 0.0434918
 4890, 183, 0.9725, 6.04851e-36, 2.41941e-31, 0.0434918
 4920, 184, 0.9725, 7.65364e-36, 3.06146e-31, 0.0434918
 4950, 185, 0.9725, 9.67478e-36, 3.86991e-31, 0.0434918
 4980, 186, 0.9725, 1.22172e-35, 4.88687e-31, 0.0434918
 5010, 187, 0.9725, 1.54121e-35, 6.16482e-31, 0.0434918
 5040, 188, 0.9725, 1.94228e-35, 7.76913e-31, 0.0434918
 5070, 189, 0.9725, 2.44529e-35, 9.78114e-31, 0.0434918
 5100, 190, 0.9725, 3.07549e-35, 1.2302e-30, 0.0434918
 5130, 191, 0.9725, 3.8643e-35, 1.54572e-30, 0.0434918
 5160, 192, 0.9725, 4.85066e-35, 1.94026e-30, 0.0434918
 5190, 193, 0.9725, 6.08285e-35, 2.43314e-30, 0.0434918
 5220, 194, 0.9725, 7.62066e-35, 3.04826e-30, 0.0434918
 5250, 195, 0.9725, 9.53805e-35, 3.81522e-30, 0.0434918
 5280, 196, 0.9725, 1.19265e-34, 4.77058e-30, 0.0434918
 5310, 197, 0.9725, 1.48988e-34, 5.95951e-30, 0.0434918
 5340, 198, 0.9725, 1.85943e-34, 7.4377e-30, 0.0434918
 5370, 199, 0.9725, 2.31846e-34, 9.27385e-30, 0.0434918
 5400, 200, 0.9725, 2.88812e-34, 1.15525e-29, 0.0434918
 5430, 201, 0.9725, 3.59442e-34, 1.43777e-29, 0.0434918
 5460, 202, 0.9725, 4.46934e-34, 1.78773e-29, 0.0434918
 5490, 203, 0.9725, 5.55212e-34, 2.22085e-29, 0.0434918
 5520, 204, 0.9725, 6.89097e-34, 2.75639e-29, 0.0434918
 5550, 205, 0.9725, 8.54494e-34, 3.41798e-29, 0.0434918
 5580, 206, 0.9725, 1.05864e-33, 4.23456e-29, 0.0434918
 5610, 207, 0.9725, 1.31039e-33, 5.24154e-29, 0.0434918
 5640, 208, 0.9725, 1.62056e-33, 6.48224e-29, 0.0434918
 5670, 209, 0.9725, 2.00239e-33, 8.00956e-29, 0.0434918
 5700, 210, 0.9725, 2.47202e-33, 9.88808e-29, 0.0434918
 5730, 211, 0.9725, 3.04914e-33, 1.21965e-28, 0.0434918
 5760, 212, 0.9725, 3.75774e-33, 1.50309e-28, 0.0434918
 5790, 213, 0.9725, 4.62703e-33, 1.85081e-28, 0.0434918
 5820, 214, 0.9725, 5.69256e-33, 2.27702e-28, 0.0434918
 5850, 215, 0.9725, 6.99751e-33, 2.79901e-28, 0.0434918
 5880, 216, 0.9725, 8.59436e-33, 3.43774e-28, 0.0434918
 5910, 217, 0.9725, 1.05468e-32, 4.2187e-28, 0.0434918
 5940, 218, 0.9725, 1.29319e-32, 5.17276e-28, 0.0434918
 5970, 219, 0.9725, 1.58433e-32, 6.33733e-28, 0.0434918
 6000, 220, 0.9725, 1.93942e-32, 7.75769e-28, 0.0434918
 6030, 221, 0.9725, 2.37215e-32, 9.48861e-28, 0.0434918
 6060, 222, 0.9725, 2.89908e-32, 1.15963e-27, 0.0434918
 6090, 223, 0.9725, 3.54019e-32, 1.41607e-27, 0.0434918
 6120, 224, 0.9725, 4.3196e-32, 1.72784e-27, 0.0434918
 6150, 225, 0.9725, 5.26639e-32, 2.10656e-27, 0.0434918
 6180, 226, 0.9725, 6.41562e-32, 2.56625e-27, 0.0434918
 6210, 227, 0.9725, 7.80946e-32, 3.12378e-27, 0.0434918
 6240, 228, 0.9725, 9.49867e-32, 3.79947e-27, 0.0434918
 6270, 229, 0.9725, 1.15442e-31, 4.6177e-27, 0.0434918
 6300, 230, 0.9725, 1.40195e-31, 5.60779e-27, 0.0434918
 6330, 231, 0.9725, 1.70123e-31, 6.80493e-27, 0.0434918
 6360, 232, 0.9725, 2.06282e-31, 8.2513e-27, 0.0434918
 6390, 233, 0.9725, 2.49937e-31, 9.99748e-27, 0.0434918
 6420, 234, 0.9725, 3.02601e-31, 1.2104e-26, 0.0434918
 6450, 235, 0.9725, 3.66085e-31, 1.46434e-26, 0.0434918
 6480, 236, 0.9725, 4.42558e-31, 1.77023e-26, 0.0434918
 6510, 237, 0.9725, 5.34607e-31, 2.13843e-26, 0.0434918
 6540, 238, 0.9725, 6.45325e-31, 2.5813e-26, 0.0434918
 6570, 239, 0.9725, 7.784e-31, 3.1136e-26, 0.0434918
 6600, 240, 0.9725, 9.38231e-31, 3.75292e-26, 0.0434918
 6630, 241, 0.9725, 1.13006e-30, 4.52024e-26, 0.0434918
 6660, 242, 0.9725, 1.36013e-30, 5.4405e-26, 0.0434918
 6690, 243, 0.9725, 1.63586e-30, 6.54342e-26, 0.0434918
 6720, 244, 0.9725, 1.96608e-30, 7.86432e-26, 0.0434918
 6750, 245, 0.9725, 2.36129e-30, 9.44515e-26, 0.0434918
 6780, 246, 0.9725, 2.83394e-30, 1.13357e-25, 0.0434918
 6810, 247, 0.9725, 3.39881e-30, 1.35952e-25, 0.0434918
 6840, 248, 0.9725, 4.07343e-30, 1.62937e-25, 0.0434918
 6870, 249, 0.9725, 4.87857e-30, 1.95143e-25, 0.0434918
 6900, 250, 0.9725, 5.83883e-30, 2.33553e-25, 0.0434918
 6930, 251, 0.9725, 6.9833e-30, 2.79332e-25, 0.0434918
 6960, 252, 0.9725, 8.34642e-30, 3.33857e-25, 0.0434918
 6990, 253, 0.9725, 9.96885e-30, 3.98754e-25, 0.0434918
 7020, 254, 0.9725, 1.18986e-29, 4.75945e-25, 0.0434918
 7050, 255, 0.9725, 1.41925e-29, 5.67699e-25, 0.0434918
 7080, 256, 0.9725, 1.69173e-29, 6.7669e-25, 0.0434919
 7110, 257, 0.9725, 2.01518e-29, 8.06072e-25, 0.0434918
 7140, 258, 0.9725, 2.3989e-29, 9.59559e-25, 0.0434918
 7170, 259, 0.9725, 2.85381e-29, 1.14152e-24, 0.0434918
 7200, 260, 0.9725, 3.39278e-29, 1.35711e-24, 0.0434918
 7230, 261, 0.9725, 4.03093e-29, 1.61237e-24, 0.0434918
 7260, 262, 0.9725, 4.78602e-29, 1.91441e-24, 0.0434918
 7290, 263, 0.9725, 5.67892e-29, 2.27157e-24, 0.0434918
 7320, 264, 0.9725, 6.73411e-29, 2.69365e-24, 0.0434918
 7350, 265, 0.9725, 7.98031e-29, 3.19213e-24, 0.0434918
 7380, 266, 0.9725, 9.45118e-29, 3.78047e-24, 0.0434918
 7410, 267, 0.9725, 1.11861e-28, 4.47446e-24, 0.0434919
 7440, 268, 0.9725, 1.32313e-28, 5.29253e-24, 0.0434918
 7470, 269, 0.9725, 1.56408e-28, 6.25631e-24, 0.0434918
 7500, 270, 0.9725, 1.84776e-28, 7.39103e-24, 0.0434918
 7530, 271, 0.9725, 2.18155e-28, 8.72622e-24, 0.0434918
 7560, 272, 0.9725, 2.57408e-28, 1.02963e-23, 0.0434918
 7590, 273, 0.9725, 3.0354e-28, 1.21416e-23, 0.0434918
 7620, 274, 0.9725, 3.57723e-28, 1.43089e-23, 0.0434918
 7650, 275, 0.9725, 4.21326e-28, 1.6853e-23, 0.0434918
 7680, 276, 0.9725, 4.95942e-28, 1.98377e-23, 0.0434918
 7710, 277, 0.9725, 5.83426e-28, 2.3337e-23, 0.0434919
 7740, 278, 0.9725, 6.85938e-28, 2.74375e-23, 0.0434918
 7770, 279, 0.9725, 8.05989e-28, 3.22396e-23, 0.0434918
 7800, 280, 0.9725, 9.46499e-28, 3.786e-23, 0.0434918
 7830, 281, 0.9725, 1.11086e-27, 4.44344e-23, 0.0434918
 7860, 282, 0.9725, 1.30301e-27, 5.21204e-23, 0.0434918
 7890, 283, 0.9725, 1.52752e-27, 6.11009e-23, 0.0434918
 7920, 284, 0.9725, 1.7897e-27, 7.15878e-23, 0.0434918
 7950, 285, 0.9725, 2.09568e-27, 8.38271e-23, 0.0434918
 7980, 286, 0.9725, 2.45259e-27, 9.81034e-23, 0.0434918
 8010, 287, 0.9725, 2.86867e-27, 1.14747e-22, 0.0434918
 8040, 288, 0.9725, 3.35347e-27, 1.34139e-22, 0.0434918
 8070, 289, 0.9725, 3.91802e-27, 1.56721e-22, 0.0434918
 8100, 290, 0.9725, 4.57508e-27, 1.83003e-22, 0.0434918
 8130, 291, 0.9725, 5.3394e-27, 2.13576e-22, 0.0434918
 8160, 292, 0.9725, 6.228e-27, 2.4912e-22, 0.0434918
 8190, 293, 0.9725, 7.26053e-27, 2.90421e-22, 0.0434918
 8220, 294, 0.9725, 8.45967e-27, 3.38387e-22, 0.0434918
 8250, 295, 0.9725, 9.85155e-27, 3.94062e-22, 0.0434918
 8280, 296, 0.9725, 1.14663e-26, 4.58652e-22, 0.0434918
 8310, 297, 0.9725, 1.33386e-26, 5.33545e-22, 0.0434918
 8340, 298, 0.9725, 1.55085e-26, 6.20339e-22, 0.0434918
 8370, 299, 0.9725, 1.80218e-26, 7.20871e-22, 0.0434918
 8400, 300, 0.9725, 2.09314e-26, 8.37257e-22, 0.0434919
 8430, 301, 0.9725, 2.42982e-26, 9.71927e-22, 0.0434918
 8460, 302, 0.9725, 2.81918e-26, 1.12767e-21, 0.0434918
 8490, 303, 0.9725, 3.26926e-26, 1.3077e-21, 0.0434918
 8520, 304, 0.9725, 3.78923e-26, 1.51569e-21, 0.0434918
 8550, 305, 0.9725, 4.38967e-26, 1.75587e-21, 0.0434918
 8580, 306, 0.9725, 5.08268e-26, 2.03307e-21, 0.0434918
 8610, 307, 0.9725, 5.88211e-26, 2.35284e-21, 0.0434919
 8640, 308, 0.9725, 6.80387e-26, 2.72155e-21, 0.0434918
 8670, 309, 0.9725, 7.86613e-26, 3.14645e-21, 0.0434918
 8700, 310, 0.9725, 9.08971e-26, 3.63588e-21, 0.0434918
 8730, 311, 0.9725, 1.04984e-25, 4.19937e-21, 0.0434918
 8760, 312, 0.9725, 1.21195e-25, 4.8478e-21, 0.0434918
 8790, 313, 0.9725, 1.3984e-25, 5.59361e-21, 0.0434918
 8820, 314, 0.9725, 1.61275e-25, 6.45101e-21, 0.0434918
 8850, 315, 0.9725, 1.85906e-25, 7.43624e-21, 0.0434918
 8880, 316, 0.9725, 2.14195e-25, 8.56779e-21, 0.0434918
 8910, 317, 0.9725, 2.4667e-25, 9.86679e-21, 0.0434918
 8940, 318, 0.9725, 2.83933e-25, 1.13573e-20, 0.0434918
 8970, 319, 0.9725, 3.2667e-25, 1.30668e-20, 0.0434918
 9000, 320, 0.9725, 3.75662e-25, 1.50265e-20, 0.0434918
 9030, 321, 0.9725, 4.31798e-25, 1.72719e-20, 0.0434918
 9060, 322, 0.9725, 4.96091e-25, 1.98437e-20, 0.0434918
 9090, 323, 0.9725, 5.69692e-25, 2.27877e-20, 0.0434918
 9120, 324, 0.9725, 6.53909e-25, 2.61563e-20, 0.0434918
 9150, 325, 0.9725, 7.50229e-25, 3.00092e-20, 0.0434918
 9180, 326, 0.9725, 8.60343e-25, 3.44137e-20, 0.0434918
 9210, 327, 0.9725, 9.86169e-25, 3.94467e-20, 0.0434918
 9240, 328, 0.9725, 1.12988e-24, 4.51953e-20, 0.0434918
 9270, 329, 0.9725, 1.29396e-24, 5.17582e-20, 0.0434918
 9300, 330, 0.9725, 1.48119e-24, 5.92475e-20, 0.0434918
 9330, 331, 0.9725, 1.69475e-24, 6.77902e-20, 0.0434918
 9360, 332, 0.9725, 1.93825e-24, 7.753e-20, 0.0434918
 9390, 333, 0.9725, 2.21575e-24, 8.863e-20, 0.0434918
 9420, 334, 0.9725, 2.53186e-24, 1.01274e-19, 0.0434918
 9450, 335, 0.9725, 2.8918e-24, 1.15672e-19, 0.0434918
 9480, 336, 0.9725, 3.30148e-24, 1.32059e-19, 0.0434918
 9510, 337, 0.9725, 3.76755e-24, 1.50702e-19, 0.0434918
 9540, 338, 0.9725, 4.29756e-24, 1.71902e-19, 0.0434918
 9570, 339, 0.9725, 4.90002e-24, 1.96001e-19, 0.0434918
 9600, 340, 0.9725, 5.58455e-24, 2.23382e-19, 0.0434919
 9630, 341, 0.9725, 6.36201e-24, 2.5448e-19, 0.0434918
 9660, 342, 0.9725, 7.24462e-24, 2.89785e-19, 0.0434918
 9690, 343, 0.9725, 8.2462e-24, 3.29848e-19, 0.0434918
 9720, 344, 0.9725, 9.38231e-24, 3.75293e-19, 0.0434918
 9750, 345, 0.9725, 1.06705e-23, 4.2682e-19, 0.0434918
 9780, 346, 0.9725, 1.21305e-23, 4.8522e-19, 0.0434918
 9810, 347, 0.9725, 1.37846e-23, 5.51383e-19, 0.0434918
 9840, 348, 0.9725, 1.56577e-23, 6.2631e-19, 0.0434918
 9870, 349, 0.9725, 1.77782e-23, 7.11127e-19, 0.0434918
 9900, 350, 0.9725, 2.01775e-23, 8.07101e-19, 0.0434918
 9930, 351, 0.9725, 2.28914e-23, 9.15657e-19, 0.0434918
 9960, 352, 0.9725, 2.59599e-23, 1.03839e-18, 0.0434918
 9990, 353, 0.9725, 2.94278e-23, 1.17711e-18, 0.0434919
 10020, 354, 0.9725, 3.33456e-23, 1.33382e-18, 0.0434918
 10050, 355, 0.9725, 3.777e-23, 1.5108e-18, 0.0434918
 10080, 356, 0.9725, 4.27645e-23, 1.71058e-18, 0.0434919
 10110, 357, 0.9725, 4.84004e-23, 1.93601e-18, 0.0434918
 10140, 358, 0.9725, 5.47575e-23, 2.1903e-18, 0.0434918
 10170, 359, 0.9725, 6.19254e-23, 2.47702e-18, 0.0434919
 10200, 360, 0.9725, 7.00044e-23, 2.80018e-18, 0.0434918
 10230, 361, 0.9725, 7.91068e-23, 3.16427e-18, 0.0434918
 10260, 362, 0.9725, 8.93584e-23, 3.57434e-18, 0.0434918
 10290, 363, 0.9725, 1.009e-22, 4.03599e-18, 0.0434918
 10320, 364, 0.9725, 1.13888e-22, 4.55554e-18, 0.0434918
 10350, 365, 0.9725, 1.285e-22, 5.14002e-18, 0.0434918
 10380, 366, 0.9725, 1.44932e-22, 5.79729e-18, 0.0434918
 10410, 367, 0.9725, 1.63404e-22, 6.53615e-18, 0.0434918
 10440, 368, 0.9725, 1.84161e-22, 7.36643e-18, 0.0434918
 10470, 369, 0.9725, 2.07477e-22, 8.29908e-18, 0.0434918
 10500, 370, 0.9725, 2.33659e-22, 9.34635e-18, 0.0434919
 10530, 371, 0.9725, 2.63047e-22, 1.05219e-17, 0.0434918
 10560, 372, 0.9725, 2.96023e-22, 1.18409e-17, 0.0434918
 10590, 373, 0.9725, 3.33012e-22, 1.33205e-17, 0.0434918
 10620, 374, 0.9725, 3.74486e-22, 1.49794e-17, 0.0434918
 10650, 375, 0.9725, 4.20972e-22, 1.68389e-17, 0.0434918
 10680, 376, 0.9725, 4.73059e-22, 1.89223e-17, 0.0434918
 10710, 377, 0.9725, 5.31399e-22, 2.1256e-17, 0.0434918
 10740, 378, 0.9725, 5.96721e-22, 2.38688e-17, 0.0434918
 10770, 379, 0.9725, 6.69835e-22, 2.67934e-17, 0.0434918
 10800, 380, 0.9725, 7.51641e-22, 3.00656e-17, 0.0434918
 10830, 381, 0.9725, 8.4314e-22, 3.37256e-17, 0.0434918
 10860, 382, 0.9725, 9.45447e-22, 3.78179e-17, 0.0434918
 10890, 383, 0.9725, 1.0598e-21, 4.23919e-17, 0.0434918
 10920, 384, 0.9725, 1.18756e-21, 4.75026e-17, 0.0434918
 10950, 385, 0.9725, 1.33028e-21, 5.32111e-17, 0.0434918
 10980, 386, 0.9725, 1.48962e-21, 5.9585e-17, 0.0434918
 11010, 387, 0.9725, 1.66749e-21, 6.66995e-17, 0.0434918
 11040, 388, 0.9725, 1.86595e-21, 7.46381e-17, 0.0434918
 11070, 389, 0.9725, 2.08733e-21, 8.34932e-17, 0.0434919
 11100, 390, 0.9725, 2.33418e-21, 9.33673e-17, 0.0434918
 11130, 391, 0.9725, 2.60935e-21, 1.04374e-16, 0.0434918
 11160, 392, 0.9725, 2.91598e-21, 1.16639e-16, 0.0434918
 11190, 393, 0.9725, 3.25755e-21, 1.30302e-16, 0.0434918
 11220, 394, 0.9725, 3.63792e-21, 1.45517e-16, 0.0434918
 11250, 395, 0.9725, 4.06137e-21, 1.62455e-16, 0.0434918
 11280, 396, 0.9725, 4.53262e-21, 1.81305e-16, 0.0434918
 11310, 397, 0.9725, 5.05689e-21, 2.02275e-16, 0.0434918
 11340, 398, 0.9725, 5.63995e-21, 2.25598e-16, 0.0434918
 11370, 399, 0.9725, 6.28821e-21, 2.51528e-16, 0.0434918
 11400, 400, 0.9725, 7.00871e-21, 2.80348e-16, 0.0434918
 11430, 401, 0.9725, 7.80924e-21, 3.1237e-16, 0.0434918
 11460, 402, 0.9725, 8.69843e-21, 3.47937e-16, 0.0434918
 11490, 403, 0.9725, 9.68578e-21, 3.87431e-16, 0.0434918
 11520, 404, 0.9725, 1.07818e-20, 4.31271e-16, 0.0434918
 11550, 405, 0.9725, 1.1998e-20, 4.79919e-16, 0.0434918
 11580, 406, 0.9725, 1.33472e-20, 5.33888e-16, 0.0434918
 11610, 407, 0.9725, 1.48435e-20, 5.93739e-16, 0.0434918
 11640, 408, 0.9725, 1.65023e-20, 6.60093e-16, 0.0434919
 11670, 409, 0.9725, 1.83409e-20, 7.33636e-16, 0.0434918
 11700, 410, 0.9725, 2.0378e-20, 8.1512e-16, 0.0434918
 11730, 411, 0.9725, 2.26344e-20, 9.05375e-16, 0.0434918
 11760, 412, 0.9725, 2.51329e-20, 1.00532e-15, 0.0434918
 11790, 413, 0.9725, 2.78987e-20, 1.11595e-15, 0.0434918
 11820, 414, 0.9725, 3.09595e-20, 1.23838e-15, 0.0434918
 11850, 415, 0.9725, 3.43456e-20, 1.37382e-15, 0.0434918
 11880, 416, 0.9725, 3.80907e-20, 1.52363e-15, 0.0434918
 11910, 417, 0.9725, 4.22314e-20, 1.68926e-15, 0.0434918
 11940, 418, 0.9725, 4.68083e-20, 1.87233e-15, 0.0434918
 11970, 419, 0.9725, 5.18658e-20, 2.07463e-15, 0.0434919
 12000, 420, 0.9725, 5.74527e-20, 2.29811e-15, 0.0434918
 12030, 421, 0.9725, 6.36227e-20, 2.54491e-15, 0.0434918
 12060, 422, 0.9725, 7.04346e-20, 2.81738e-15, 0.0434918
 12090, 423, 0.9725, 7.79531e-20, 3.11812e-15, 0.0434918
 12120, 424, 0.9725, 8.6249e-20, 3.44996e-15, 0.0434918
 12150, 425, 0.9725, 9.54002e-20, 3.81601e-15, 0.0434918
 12180, 426, 0.9725, 1.05492e-19, 4.21968e-15, 0.0434918
 12210, 427, 0.9725, 1.16618e-19, 4.6647e-15, 0.0434918
 12240, 428, 0.9725, 1.2888e-19, 5.15519e-15, 0.0434918
 12270, 429, 0.9725, 1.42391e-19, 5.69563e-15, 0.0434919
 12300, 430, 0.9725, 1.57274e-19, 6.29094e-15, 0.0434918
 12330, 431, 0.9725, 1.73663e-19, 6.94652e-15, 0.0434918
 12360, 432, 0.9725, 1.91706e-19, 7.66825e-15, 0.0434918
 12390, 433, 0.9725, 2.11565e-19, 8.4626e-15, 0.0434918
 12420, 434, 0.9725, 2.33416e-19, 9.33664e-15, 0.0434918
 12450, 435, 0.9725, 2.57452e-19, 1.02981e-14, 0.0434918
 12480, 436, 0.9725, 2.83885e-19, 1.13554e-14, 0.0434918
 12510, 437, 0.9725, 3.12946e-19, 1.25178e-14, 0.0434918
 12540, 438, 0.9725, 3.44887e-19, 1.37955e-14, 0.0434918
 12570, 439, 0.9725, 3.79984e-19, 1.51994e-14, 0.0434918
 12600, 440, 0.9725, 4.18539e-19, 1.67416e-14, 0.0434918
 12630, 441, 0.9725, 4.60882e-19, 1.84353e-14, 0.0434918
 12660, 442, 0.9725, 5.07371e-19, 2.02948e-14, 0.0434918
 12690, 443, 0.9725, 5.584e-19, 2.2336e-14, 0.0434918
 12720, 444, 0.9725, 6.14397e-19, 2.45759e-14, 0.0434918
 12750, 445, 0.9725, 6.75829e-19, 2.70332e-14, 0.0434918
 12780, 446, 0.9725, 7.43207e-19, 2.97283e-14, 0.0434918
 12810, 447, 0.9725, 8.17086e-19, 3.26835e-14, 0.0434918
 12840, 448, 0.9725, 8.98074e-19, 3.5923e-14, 0.0434918
 12870, 449, 0.9725, 9.8683e-19, 3.94732e-14, 0.0434918
 12900, 450, 0.9725, 1.08408e-18, 4.33631e-14, 0.0434918
 12930, 451, 0.9725, 1.1906e-18, 4.76238e-14, 0.0434918
 12960, 452, 0.9725, 1.30724e-18, 5.22898e-14, 0.0434918
 12990, 453, 0.9725, 1.43495e-18, 5.7398e-14, 0.0434918
 13020, 454, 0.9725, 1.57473e-18, 6.29892e-14, 0.0434918
 13050, 455, 0.9725, 1.72768e-18, 6.91074e-14, 0.0434918
 13080, 456, 0.9725, 1.89501e-18, 7.58005e-14, 0.0434918
 13110, 457, 0.9725, 2.07802e-18, 8.31209e-14, 0.0434918
 13140, 458, 0.9725, 2.27813e-18, 9.11252e-14, 0.0434918
 13170, 459, 0.9725, 2.49688e-18, 9.98752e-14, 0.0434919
 13200, 460, 0.9725, 2.73595e-18, 1.09438e-13, 0.0434918
 13230, 461, 0.9725, 2.99717e-18, 1.19887e-13, 0.0434918
 13260, 462, 0.9725, 3.28251e-18, 1.313e-13, 0.0434918
 13290, 463, 0.9725, 3.59412e-18, 1.43765e-13, 0.0434918
 13320, 464, 0.9725, 3.93435e-18, 1.57374e-13, 0.0434918
 13350, 465, 0.9725, 4.30574e-18, 1.7223e-13, 0.0434918
 13380, 466, 0.9725, 4.71103e-18, 1.88441e-13, 0.0434918
 13410, 467, 0.9725, 5.15322e-18, 2.06129e-13, 0.0434918
 13440, 468, 0.9725, 5.63554e-18, 2.25422e-13, 0.0434918
 13470, 469, 0.9725, 6.16153e-18, 2.46461e-13, 0.0434918
 13500, 470, 0.9725, 6.73499e-18, 2.694e-13, 0.0434918
 13530, 471, 0.9725, 7.36006e-18, 2.94402e-13, 0.0434918
 13560, 472, 0.9725, 8.04123e-18, 3.21649e-13, 0.0434918
 13590, 473, 0.9725, 8.78336e-18, 3.51334e-13, 0.0434918
 13620, 474, 0.9725, 9.59171e-18, 3.83668e-13, 0.0434918
 13650, 475, 0.9725, 1.0472e-17, 4.18879e-13, 0.0434918
 13680, 476, 0.9725, 1.14304e-17, 4.57215e-13, 0.0434918
 13710, 477, 0.9725, 1.24736e-17, 4.98942e-13, 0.0434918
 13740, 478, 0.9725, 1.36088e-17, 5.44352e-13, 0.0434918
 13770, 479, 0.9725, 1.48439e-17, 5.93756e-13, 0.0434918
 13800, 480, 0.9725, 1.61874e-17, 6.47495e-13, 0.0434918
 13830, 481, 0.9725, 1.76484e-17, 7.05935e-13, 0.0434918
 13860, 482, 0.9725, 1.92368e-17, 7.69473e-13, 0.0434918
 13890, 483, 0.9725, 2.09635e-17, 8.3854e-13, 0.0434918
 13920, 484, 0.9725, 2.28399e-17, 9.13598e-13, 0.0434918
 13950, 485, 0.9725, 2.48787e-17, 9.95149e-13, 0.0434918
 13980, 486, 0.9725, 2.70934e-17, 1.08374e-12, 0.0434918
 14010, 487, 0.9725, 2.94986e-17, 1.17994e-12, 0.0434918
 14040, 488, 0.9725, 3.21102e-17, 1.28441e-12, 0.0434918
 14070, 489, 0.9725, 3.49451e-17, 1.39781e-12, 0.0434918
 14100, 490, 0.9725, 3.8022e-17, 1.52088e-12, 0.0434918
 14130, 491, 0.9725, 4.13606e-17, 1.65442e-12, 0.0434918
 14160, 492, 0.9725, 4.49825e-17, 1.7993e-12, 0.0434918
 14190, 493, 0.9725, 4.89108e-17, 1.95643e-12, 0.0434918
 14220, 494, 0.9725, 5.31705e-17, 2.12682e-12, 0.0434918
 14250, 495, 0.9725, 5.77887e-17, 2.31155e-12, 0.0434919
 14280, 496, 0.9725, 6.27944e-17, 2.51178e-12, 0.0434918
 14310, 497, 0.9725, 6.8219e-17, 2.72876e-12, 0.0434918
 14340, 498, 0.9725, 7.40963e-17, 2.96385e-12, 0.0434918
 14370, 499, 0.9725, 8.04627e-17, 3.21851e-12, 0.0434918
 14400, 500, 0.9725, 8.73574e-17, 3.4943e-12, 0.0434918
 14430, 501, 0.9725, 9.48228e-17, 3.79291e-12, 0.0434918
 14460, 502, 0.9725, 1.02904e-16, 4.11618e-12, 0.0434918
 14490, 503, 0.9725, 1.11651e-16, 4.46605e-12, 0.0434918
 14520, 504, 0.9725, 1.21116e-16, 4.84465e-12, 0.0434918
 14550, 505, 0.9725, 1.31356e-16, 5.25425e-12, 0.0434918
 14580, 506, 0.9725, 1.42432e-16, 5.69728e-12, 0.0434918
 14610, 507, 0.9725, 1.5441e-16, 6.17639e-12, 0.0434918
 14640, 508, 0.9725, 1.6736e-16, 6.69441e-12, 0.0434918
 14670, 509, 0.9725, 1.81359e-16, 7.25438e-12, 0.0434918
 14700, 510, 0.9725, 1.96489e-16, 7.85957e-12, 0.0434918
 14730, 511, 0.9725, 2.12838e-16, 8.51352e-12, 0.0434918
 14760, 512, 0.9725, 2.305e-16, 9.22e-12, 0.0434918
 14790, 513, 0.9725, 2.49577e-16, 9.98307e-12, 0.0434918
 14820, 514, 0.9725, 2.70178e-16, 1.08071e-11, 0.0434918
 14850, 515, 0.9725, 2.92421e-16, 1.16968e-11, 0.0434919
 14880, 516, 0.9725, 3.16432e-16, 1.26573e-11, 0.0434918
 14910, 517, 0.9725, 3.42345e-16, 1.36938e-11, 0.0434918
 14940, 518, 0.9725, 3.70308e-16, 1.48123e-11, 0.0434918
 14970, 519, 0.9725, 4.00474e-16, 1.6019e-11, 0.0434918
 15000, 520, 0.9725, 4.33013e-16, 1.73205e-11, 0.0434918
 15030, 521, 0.9725, 4.68104e-16, 1.87241e-11, 0.0434918
 15060, 522, 0.9725, 5.05939e-16, 2.02375e-11, 0.0434919
 15090, 523, 0.9725, 5.46725e-16, 2.1869e-11, 0.0434918
 15120, 524, 0.9725, 5.90684e-16, 2.36274e-11, 0.0434918
 15150, 525, 0.9725, 6.38054e-16, 2.55222e-11, 0.0434918
 15180, 526, 0.9725, 6.8909e-16, 2.75636e-11, 0.0434918
 15210, 527, 0.9725, 7.44065e-16, 2.97626e-11, 0.0434918
 15240, 528, 0.9725, 8.03272e-16, 3.21309e-11, 0.0434918
 15270, 529, 0.9725, 8.67025e-16, 3.4681e-11, 0.0434919
 15300, 530, 0.9725, 9.3566e-16, 3.74264e-11, 0.0434918
 15330, 531, 0.9725, 1.00954e-15, 4.03814e-11, 0.0434918
 15360, 532, 0.9725, 1.08904e-15, 4.35616e-11, 0.0434918
 15390, 533, 0.9725, 1.17458e-15, 4.69834e-11, 0.0434918
 15420, 534, 0.9725, 1.26661e-15, 5.06644e-11, 0.0434918
 15450, 535, 0.9725, 1.36559e-15, 5.46237e-11, 0.0434918
 15480, 536, 0.9725, 1.47203e-15, 5.88814e-11, 0.0434918
 15510, 537, 0.9725, 1.58648e-15, 6.34592e-11, 0.0434919
 15540, 538, 0.9725, 1.70951e-15, 6.83803e-11, 0.0434918
 15570, 539, 0.9725, 1.84174e-15, 7.36695e-11, 0.0434918
 15600, 540, 0.9725, 1.98383e-15, 7.93532e-11, 0.0434918
 15630, 541, 0.9725, 2.1365e-15, 8.54599e-11, 0.0434917
 15660, 542, 0.9725, 2.30049e-15, 9.20197e-11, 0.0434918
 15690, 543, 0.9725, 2.47663e-15, 9.90651e-11, 0.0434918
 15720, 544, 0.9725, 2.66577e-15, 1.06631e-10, 0.0434918
 15750, 545, 0.9725, 2.86884e-15, 1.14753e-10, 0.0434918
 15780, 546, 0.9725, 3.08682e-15, 1.23473e-10, 0.0434918
 15810, 547, 0.9725, 3.32077e-15, 1.32831e-10, 0.0434918
 15840, 548, 0.9725, 3.57183e-15, 1.42873e-10, 0.0434918
 15870, 549, 0.9725, 3.84117e-15, 1.53647e-10, 0.0434918
 15900, 550, 0.9725, 4.1301e-15, 1.65204e-10, 0.0434918
 15930, 551, 0.9725, 4.43999e-15, 1.77599e-10, 0.0434918
 15960, 552, 0.9725, 4.77228e-15, 1.90891e-10, 0.0434918
 15990, 553, 0.9725, 5.12855e-15, 2.05142e-10, 0.0434918
 16020, 554, 0.9725, 5.51046e-15, 2.20418e-10, 0.0434918
 16050, 555, 0.9725, 5.91977e-15, 2.36791e-10, 0.0434919
 16080, 556, 0.9725, 6.3584e-15, 2.54336e-10, 0.0434918
 16110, 557, 0.9725, 6.82835e-15, 2.73134e-10, 0.0434918
 16140, 558, 0.9725, 7.33177e-15, 2.93271e-10, 0.0434918
 16170, 559, 0.9725, 7.87096e-15, 3.14838e-10, 0.0434918
 16200, 560, 0.9725, 8.44837e-15, 3.37935e-10, 0.0434918
 16230, 561, 0.9725, 9.06659e-15, 3.62664e-10, 0.0434918
 16260, 562, 0.9725, 9.72841e-15, 3.89136e-10, 0.0434918
 16290, 563, 0.9725, 1.04368e-14, 4.17471e-10, 0.0434918
 16320, 564, 0.9725, 1.11949e-14, 4.47794e-10, 0.0434918
 16350, 565, 0.9725, 1.2006e-14, 4.80239e-10, 0.0434918
 16380, 566, 0.9725, 1.28737e-14, 5.14949e-10, 0.0434918
 16410, 567, 0.9725, 1.38019e-14, 5.52076e-10, 0.0434918
 16440, 568, 0.9725, 1.47945e-14, 5.91781e-10, 0.0434918
 16470, 569, 0.9725, 1.5856e-14, 6.34238e-10, 0.0434918
 16500, 570, 0.9725, 1.69907e-14, 6.79629e-10, 0.0434918
 16530, 571, 0.9725, 1.82037e-14, 7.28149e-10, 0.0434918
 16560, 572, 0.9725, 1.95002e-14, 7.80006e-10, 0.0434918
 16590, 573, 0.9725, 2.08855e-14, 8.3542e-10, 0.0434918
 16620, 574, 0.9725, 2.23657e-14, 8.94627e-10, 0.0434918
 16650, 575, 0.9725, 2.39468e-14, 9.57874e-10, 0.0434918
 16680, 576, 0.9725, 2.56357e-14, 1.02543e-09, 0.0434918
 16710, 577, 0.9725, 2.74392e-14, 1.09757e-09, 0.0434918
 16740, 578, 0.9725, 2.9365e-14, 1.1746e-09, 0.0434918
 16770, 579, 0.9725, 3.14209e-14, 1.25683e-09, 0.0434918
 16800, 580, 0.9725, 3.36154e-14, 1.34461e-09, 0.0434918
 16830, 581, 0.9725, 3.59574e-14, 1.4383e-09, 0.0434918
 16860, 582, 0.9725, 3.84566e-14, 1.53827e-09, 0.0434918
 16890, 583, 0.9725, 4.11231e-14, 1.64492e-09, 0.0434918
 16920, 584, 0.9725, 4.39675e-14, 1.7587e-09, 0.0434918
 16950, 585, 0.9725, 4.70014e-14, 1.88006e-09, 0.0434918
 16980, 586, 0.9725, 5.02368e-14, 2.00947e-09, 0.0434918
 17010, 587, 0.9725, 5.36866e-14, 2.14747e-09, 0.0434918
 17040, 588, 0.9725, 5.73645e-14, 2.29458e-09, 0.0434919
 17070, 589, 0.9725, 6.12849e-14, 2.4514e-09, 0.0434918
 17100, 590, 0.9725, 6.54632e-14, 2.61853e-09, 0.0434918
 17130, 591, 0.9725, 6.99157e-14, 2.79663e-09, 0.0434918
 17160, 592, 0.9725, 7.46597e-14, 2.98639e-09, 0.0434918
 17190, 593, 0.9725, 7.97135e-14, 3.18854e-09, 0.0434918
 17220, 594, 0.9725, 8.50965e-14, 3.40386e-09, 0.0434918
 17250, 595, 0.9725, 9.08294e-14, 3.63318e-09, 0.0434918
 17280, 596, 0.9725, 9.6934e-14, 3.87736e-09, 0.0434918
 17310, 597, 0.9725, 1.03433e-13, 4.13733e-09, 0.0434918
 17340, 598, 0.9725, 1.10352e-13, 4.41408e-09, 0.0434918
 17370, 599, 0.9725, 1.17716e-13, 4.70864e-09, 0.0434918
 17400, 600, 0.9725, 1.25553e-13, 5.02212e-09, 0.0434918
 17430, 601, 0.9725, 1.33892e-13, 5.35567e-09, 0.0434918
 17460, 602, 0.9725, 1.42763e-13, 5.71054e-09, 0.0434918
 17490, 603, 0.9725, 1.52201e-13, 6.08803e-09, 0.0434918
 17520, 604, 0.9725, 1.62238e-13, 6.48952e-09, 0.0434918
 17550, 605, 0.9725, 1.72912e-13, 6.91649e-09, 0.0434918
 17580, 606, 0.9725, 1.84262e-13, 7.37048e-09, 0.0434918
 17610, 607, 0.9725, 1.96329e-13, 7.85314e-09, 0.0434918
 17640, 608, 0.9725, 2.09155e-13, 8.3662e-09, 0.0434918
 17670, 609, 0.9725, 2.22787e-13, 8.9115e-09, 0.0434918
 17700, 610, 0.9725, 2.37275e-13, 9.49098e-09, 0.0434918
 17730, 611, 0.9725, 2.52668e-13, 1.01067e-08, 0.0434918
 17760, 612, 0.9725, 2.69021e-13, 1.07608e-08, 0.0434918
 17790, 613, 0.9725, 2.86393e-13, 1.14557e-08, 0.0434918
 17820, 614, 0.9725, 3.04843e-13, 1.21937e-08, 0.0434918
 17850, 615, 0.9725, 3.24436e-13, 1.29774e-08, 0.0434918
 17880, 616, 0.9725, 3.4524e-13, 1.38096e-08, 0.0434918
 17910, 617, 0.9725, 3.67327e-13, 1.46931e-08, 0.0434918
 17940, 618, 0.9725, 3.90772e-13, 1.56309e-08, 0.0434918
 17970, 619, 0.9725, 4.15657e-13, 1.66263e-08, 0.0434918
 18000, 620, 0.9725, 4.42064e-13, 1.76826e-08, 0.0434918
 18030, 621, 0.9725, 4.70085e-13, 1.88034e-08, 0.0434918
 18060, 622, 0.9725, 4.99814e-13, 1.99925e-08, 0.0434918
 18090, 623, 0.9725, 5.31349e-13, 2.1254e-08, 0.0434918
 18120, 624, 0.9725, 5.64797e-13, 2.25919e-08, 0.0434918
 18150, 625, 0.9725, 6.0027e-13, 2.40108e-08, 0.0434918
 18180, 626, 0.9725, 6.37883e-13, 2.55153e-08, 0.0434918
 18210, 627, 0.9725, 6.77762e-13, 2.71105e-08, 0.0434918
 18240, 628, 0.9725, 7.20037e-13, 2.88015e-08, 0.0434918
 18270, 629, 0.9725, 7.64847e-13, 3.05939e-08, 0.0434918
 18300, 630, 0.9725, 8.12336e-13, 3.24935e-08, 0.0434918
 18330, 631, 0.9725, 8.62659e-13, 3.45064e-08, 0.0434918
 18360, 632, 0.9725, 9.15978e-13, 3.66391e-08, 0.0434918
 18390, 633, 0.9725, 9.72464e-13, 3.88986e-08, 0.0434918
 18420, 634, 0.9725, 1.0323e-12, 4.12919e-08, 0.0434918
 18450, 635, 0.9725, 1.09567e-12, 4.38267e-08, 0.0434918
 18480, 636, 0.9725, 1.16278e-12, 4.6511e-08, 0.0434917
 18510, 637, 0.9725, 1.23383e-12, 4.93533e-08, 0.0434918
 18540, 638, 0.9725, 1.30906e-12, 5.23624e-08, 0.0434918
 18570, 639, 0.9725, 1.3887e-12, 5.55478e-08, 0.0434918
 18600, 640, 0.9725, 1.47299e-12, 5.89194e-08, 0.0434918
 18630, 641, 0.9725, 1.56219e-12, 6.24876e-08, 0.0434918
 18660, 642, 0.9725, 1.65658e-12, 6.62633e-08, 0.0434918
 18690, 643, 0.9725, 1.75645e-12, 7.02582e-08, 0.0434918
 18720, 644, 0.9725, 1.86211e-12, 7.44844e-08, 0.0434918
 18750, 645, 0.9725, 1.97387e-12, 7.89548e-08, 0.0434918
 18780, 646, 0.9725, 2.09207e-12, 8.36829e-08, 0.0434918
 18810, 647, 0.9725, 2.21707e-12, 8.86829e-08, 0.0434918
 18840, 648, 0.9725, 2.34924e-12, 9.39697e-08, 0.0434917
 18870, 649, 0.9725, 2.48898e-12, 9.95593e-08, 0.0434918
 18900, 650, 0.9725, 2.6367e-12, 1.05468e-07, 0.0434918
 18930, 651, 0.9725, 2.79284e-12, 1.11714e-07, 0.0434918
 18960, 652, 0.9725, 2.95786e-12, 1.18315e-07, 0.0434919
 18990, 653, 0.9725, 3.13224e-12, 1.2529e-07, 0.0434918
 19020, 654, 0.9725, 3.31649e-12, 1.3266e-07, 0.0434918
 19050, 655, 0.9725, 3.51115e-12, 1.40446e-07, 0.0434918
 19080, 656, 0.9725, 3.71678e-12, 1.48671e-07, 0.0434918
 19110, 657, 0.9725, 3.93397e-12, 1.57359e-07, 0.0434918
 19140, 658, 0.9725, 4.16334e-12, 1.66533e-07, 0.0434918
 19170, 659, 0.9725, 4.40554e-12, 1.76222e-07, 0.0434919
 19200, 660, 0.9725, 4.66128e-12, 1.86451e-07, 0.0434918
 19230, 661, 0.9725, 4.93126e-12, 1.9725e-07, 0.0434918
 19260, 662, 0.9725, 5.21625e-12, 2.0865e-07, 0.0434918
 19290, 663, 0.9725, 5.51705e-12, 2.20682e-07, 0.0434919
 19320, 664, 0.9725, 5.8345e-12, 2.3338e-07, 0.0434917
 19350, 665, 0.9725, 6.16948e-12, 2.46779e-07, 0.0434919
 19380, 666, 0.9725, 6.52291e-12, 2.60917e-07, 0.0434918
 19410, 667, 0.9725, 6.89578e-12, 2.75831e-07, 0.0434918
 19440, 668, 0.9725, 7.2891e-12, 2.91564e-07, 0.0434918
 19470, 669, 0.9725, 7.70394e-12, 3.08158e-07, 0.0434918
 19500, 670, 0.9725, 8.14144e-12, 3.25658e-07, 0.0434918
 19530, 671, 0.9725, 8.60278e-12, 3.44111e-07, 0.0434918
 19560, 672, 0.9725, 9.08919e-12, 3.63568e-07, 0.0434918
 19590, 673, 0.9725, 9.602e-12, 3.8408e-07, 0.0434918
 19620, 674, 0.9725, 1.01426e-11, 4.05702e-07, 0.0434918
 19650, 675, 0.9725, 1.07123e-11, 4.28493e-07, 0.0434918
 19680, 676, 0.9725, 1.13128e-11, 4.52511e-07, 0.0434919
 19710, 677, 0.9725, 1.19455e-11, 4.77821e-07, 0.0434918
 19740, 678, 0.9725, 1.26122e-11, 5.04489e-07, 0.0434918
 19770, 679, 0.9725, 1.33146e-11, 5.32584e-07, 0.0434918
 19800, 680, 0.9725, 1.40545e-11, 5.6218e-07, 0.0434918
 19830, 681, 0.9725, 1.48338e-11, 5.93353e-07, 0.0434917
 19860, 682, 0.9725, 1.56546e-11, 6.26185e-07, 0.0434918
 19890, 683, 0.9725, 1.6519e-11, 6.60758e-07, 0.0434918
 19920, 684, 0.9725, 1.74291e-11, 6.97162e-07, 0.0434918
 19950, 685, 0.9725, 1.83872e-11, 7.35489e-07, 0.0434918
 19980, 686, 0.9725, 1.93959e-11, 7.75837e-07, 0.0434918
 20010, 687, 0.9725, 2.04577e-11, 8.18308e-07, 0.0434918
 20040, 688, 0.9725, 2.15752e-11, 8.63007e-07, 0.0434918
 20070, 689, 0.9725, 2.27512e-11, 9.10047e-07, 0.0434918
 20100, 690, 0.9725, 2.39887e-11, 9.59546e-07, 0.0434918
 20130, 691, 0.9725, 2.52907e-11, 1.01163e-06, 0.0434918
 20160, 692, 0.9725, 2.66604e-11, 1.06642e-06, 0.0434918
 20190, 693, 0.9725, 2.81013e-11, 1.12405e-06, 0.0434918
 20220, 694, 0.9725, 2.96168e-11, 1.18467e-06, 0.0434918
 20250, 695, 0.9725, 3.12106e-11, 1.24843e-06, 0.0434918
 20280, 696, 0.9725, 3.28867e-11, 1.31547e-06, 0.0434918
 20310, 697, 0.9725, 3.4649e-11, 1.38596e-06, 0.0434918
 20340, 698, 0.9725, 3.65019e-11, 1.46008e-06, 0.0434918
 20370, 699, 0.9725, 3.84497e-11, 1.53799e-06, 0.0434918
 20400, 700, 0.9725, 4.04972e-11, 1.61989e-06, 0.0434918
 20430, 701, 0.9725, 4.26491e-11, 1.70596e-06, 0.0434919
 20460, 702, 0.9725, 4.49106e-11, 1.79642e-06, 0.0434918
 20490, 703, 0.9725, 4.7287e-11, 1.89148e-06, 0.0434918
 20520, 704, 0.9725, 4.97839e-11, 1.99135e-06, 0.0434918
 20550, 705, 0.9725, 5.24071e-11, 2.09628e-06, 0.0434918
 20580, 706, 0.9725, 5.51627e-11, 2.20651e-06, 0.0434918
 20610, 707, 0.9725, 5.80572e-11, 2.32229e-06, 0.0434917
 20640, 708, 0.9725, 6.10972e-11, 2.44389e-06, 0.0434918
 20670, 709, 0.9725, 6.42897e-11, 2.57159e-06, 0.0434918
 20700, 710, 0.9725, 6.7642e-11, 2.70568e-06, 0.0434918
 20730, 711, 0.9725, 7.11618e-11, 2.84647e-06, 0.0434918
 20760, 712, 0.9725, 7.4857e-11, 2.99428e-06, 0.0434918
 20790, 713, 0.9725, 7.8736e-11, 3.14944e-06, 0.0434918
 20820, 714, 0.9725, 8.28075e-11, 3.3123e-06, 0.0434917
 20850, 715, 0.9725, 8.70807e-11, 3.48323e-06, 0.0434918
 20880, 716, 0.9725, 9.15651e-11, 3.6626e-06, 0.0434919
 20910, 717, 0.9725, 9.62706e-11, 3.85082e-06, 0.0434919
 20940, 718, 0.9725, 1.01208e-10, 4.04831e-06, 0.0434918
 20970, 719, 0.9725, 1.06387e-10, 4.25549e-06, 0.0434919
 21000, 720, 0.9725, 1.11821e-10, 4.47283e-06, 0.0434918
 21030, 721, 0.9725, 1.1752e-10, 4.7008e-06, 0.0434918
 21060, 722, 0.9725, 1.23497e-10, 4.93989e-06, 0.0434918
 21090, 723, 0.9725, 1.29766e-10, 5.19062e-06, 0.0434918
 21120, 724, 0.9725, 1.36339e-10, 5.45354e-06, 0.0434919
 21150, 725, 0.9725, 1.4323e-10, 5.72921e-06, 0.0434919
 21180, 726, 0.9725, 1.50456e-10, 6.01822e-06, 0.0434918
 21210, 727, 0.9725, 1.5803e-10, 6.32119e-06, 0.0434918
 21240, 728, 0.9725, 1.65969e-10, 6.63876e-06, 0.0434918
 21270, 729, 0.9725, 1.7429e-10, 6.9716e-06, 0.0434919
 21300, 730, 0.9725, 1.8301e-10, 7.32041e-06, 0.0434918
 21330, 731, 0.9725, 1.92148e-10, 7.68593e-06, 0.0434919
 21360, 732, 0.9725, 2.01723e-10, 8.06892e-06, 0.0434919
 21390, 733, 0.9725, 2.11754e-10, 8.47017e-06, 0.0434919
 21420, 734, 0.9725, 2.22263e-10, 8.89052e-06, 0.0434919
 21450, 735, 0.9725, 2.33271e-10, 9.33084e-06, 0.0434919
 21480, 736, 0.9725, 2.448e-10, 9.79202e-06, 0.0434919
 21510, 737, 0.9725, 2.56875e-10, 1.0275e-05, 0.0434919
 21540, 738, 0.9725, 2.6952e-10, 1.07808e-05, 0.0434918
 21570, 739, 0.9725, 2.82761e-10, 1.13104e-05, 0.0434918
 21600, 740, 0.9725, 2.96623e-10, 1.18649e-05, 0.0434919
 21630, 741, 0.9725, 3.11136e-10, 1.24455e-05, 0.0434919
 21660, 742, 0.9725, 3.26329e-10, 1.30532e-05, 0.043492
 21690, 743, 0.9725, 3.42231e-10, 1.36892e-05, 0.0434919
 21720, 744, 0.9725, 3.58874e-10, 1.4355e-05, 0.0434919
 21750, 745, 0.9725, 3.76292e-10, 1.50517e-05, 0.0434918
 21780, 746, 0.9725, 3.94519e-10, 1.57807e-05, 0.0434919
 21810, 747, 0.9725, 4.1359e-10, 1.65436e-05, 0.0434919
 21840, 748, 0.9725, 4.33542e-10, 1.73417e-05, 0.0434919
 21870, 749, 0.9725, 4.54416e-10, 1.81766e-05, 0.0434918
 21900, 750, 0.9725, 4.7625e-10, 1.905e-05, 0.0434919
 21930, 751, 0.9725, 4.99088e-10, 1.99635e-05, 0.043492
 21960, 752, 0.9725, 5.22974e-10, 2.0919e-05, 0.043492
 21990, 753, 0.9725, 5.47952e-10, 2.19181e-05, 0.0434919
 22020, 754, 0.9725, 5.74072e-10, 2.29629e-05, 0.043492
 22050, 755, 0.9725, 6.01382e-10, 2.40553e-05, 0.043492
 22080, 756, 0.9725, 6.29934e-10, 2.51974e-05, 0.043492
 22110, 757, 0.9725, 6.59783e-10, 2.63913e-05, 0.0434919
 22140, 758, 0.9725, 6.90983e-10, 2.76393e-05, 0.043492
 22170, 759, 0.9725, 7.23595e-10, 2.89438e-05, 0.043492
 22200, 760, 0.9725, 7.57678e-10, 3.03071e-05, 0.043492
 22230, 761, 0.972499, 7.93296e-10, 3.17318e-05, 0.043492
 22260, 762, 0.972499, 8.30514e-10, 3.32206e-05, 0.043492
 22290, 763, 0.972499, 8.69402e-10, 3.47761e-05, 0.0434921
 22320, 764, 0.972499, 9.1003e-10, 3.64012e-05, 0.043492
 22350, 765, 0.972499, 9.52473e-10, 3.80989e-05, 0.043492
 22380, 766, 0.972499, 9.96807e-10, 3.98723e-05, 0.043492
 22410, 767, 0.972499, 1.04311e-09, 4.17246e-05, 0.043492
 22440, 768, 0.972499, 1.09148e-09, 4.36591e-05, 0.0434921
 22470, 769, 0.972499, 1.14198e-09, 4.56794e-05, 0.0434921
 22500, 770, 0.972499, 1.19472e-09, 4.7789e-05, 0.0434921
 22530, 771, 0.972499, 1.24979e-09, 4.99917e-05, 0.0434921
 22560, 772, 0.972499, 1.30728e-09, 5.22914e-05, 0.0434921
 22590, 773, 0.972499, 1.3673e-09, 5.46922e-05, 0.0434921
 22620, 774, 0.972499, 1.42996e-09, 5.71983e-05, 0.0434922
 22650, 775, 0.972499, 1.49535e-09, 5.98142e-05, 0.0434922
 22680, 776, 0.972499, 1.56361e-09, 6.25443e-05, 0.0434922
 22710, 777, 0.972499, 1.63484e-09, 6.53935e-05, 0.0434922
 22740, 778, 0.972499, 1.70917e-09, 6.83667e-05, 0.0434922
 22770, 779, 0.972499, 1.78673e-09, 7.1469e-05, 0.0434922
 22800, 780, 0.972499, 1.86765e-09, 7.47059e-05, 0.0434923
 22830, 781, 0.972499, 1.95207e-09, 7.80827e-05, 0.0434922
 22860, 782, 0.972499, 2.04013e-09, 8.16054e-05, 0.0434924
 22890, 783, 0.972499, 2.132e-09, 8.52798e-05, 0.0434922
 22920, 784, 0.972499, 2.22781e-09, 8.91123e-05, 0.0434924
 22950, 785, 0.972498, 2.32773e-09, 9.31093e-05, 0.0434924
 22980, 786, 0.972498, 2.43194e-09, 9.72775e-05, 0.0434923
 23010, 787, 0.972498, 2.5406e-09, 0.000101624, 0.0434923
 23040, 788, 0.972498, 2.65389e-09, 0.000106156, 0.0434924
 23070, 789, 0.972498, 2.77201e-09, 0.00011088, 0.0434924
 23100, 790, 0.972498, 2.89515e-09, 0.000115806, 0.0434925
 23130, 791, 0.972498, 3.02352e-09, 0.000120941, 0.0434925
 23160, 792, 0.972498, 3.15731e-09, 0.000126293, 0.0434926
 23190, 793, 0.972498, 3.29677e-09, 0.000131871, 0.0434925
 23220, 794, 0.972498, 3.4421e-09, 0.000137684, 0.0434926
 23250, 795, 0.972498, 3.59354e-09, 0.000143742, 0.0434927
 23280, 796, 0.972497, 3.75135e-09, 0.000150054, 0.0434927
 23310, 797, 0.972497, 3.91578e-09, 0.000156631, 0.0434926
 23340, 798, 0.972497, 4.08708e-09, 0.000163483, 0.0434928
 23370, 799, 0.972497, 4.26554e-09, 0.000170622, 0.0434928
 23400, 800, 0.972497, 4.45144e-09, 0.000178057, 0.0434929