File: examples/Birch_TGA_Example/Work/Cone_arvlop4v/birch_tga_1step_20_tga.csv
s,C,g/g,1/s,W/g,W/g
Time,Temp,Mass,MLR,MCC,DSC
 3, 21.0014, 0.999999, 2.18432e-07, 0.0000000E+000, 0.459601
 6, 22.0014, 0.999999, 2.50874e-07, 0.0000000E+000, 0.459673
 9, 23.0014, 0.999998, 2.87863e-07, 0.0000000E+000, 0.459756
 12, 24.0014, 0.999997, 3.29998e-07, 0.0000000E+000, 0.45985
 15, 25.0014, 0.999996, 3.77948e-07, 0.0000000E+000, 0.459957
 18, 26.0014, 0.999995, 4.32468e-07, 0.0000000E+000, 0.460078
 21, 27.0014, 0.999993, 4.94401e-07, 0.0000000E+000, 0.460217
 24, 28.0014, 0.999992, 5.64693e-07, 0.0000000E+000, 0.460373
 27, 29.0014, 0.99999, 6.44398e-07, 0.0000000E+000, 0.460551
 30, 30.0014, 0.999988, 7.34698e-07, 0.0000000E+000, 0.460753
 33, 31.0014, 0.999985, 8.36909e-07, 0.0000000E+000, 0.460981
 36, 32.0014, 0.999983, 9.52499e-07, 0.0000000E+000, 0.461239
 39, 33.0014, 0.99998, 1.08311e-06, 0.0000000E+000, 0.46153
 42, 34.0014, 0.999976, 1.23055e-06, 0.0000000E+000, 0.461859
 45, 35.0014, 0.999972, 1.39685e-06, 0.0000000E+000, 0.46223
 48, 36.0014, 0.999968, 1.58425e-06, 0.0000000E+000, 0.462648
 51, 37.0014, 0.999963, 1.79525e-06, 0.0000000E+000, 0.463118
 54, 38.0014, 0.999957, 2.0326e-06, 0.0000000E+000, 0.463647
 57, 39.0014, 0.999951, 2.29936e-06, 0.0000000E+000, 0.464242
 60, 40.0014, 0.999943, 2.59888e-06, 0.0000000E+000, 0.464909
 63, 41.0014, 0.999935, 2.9349e-06, 0.0000000E+000, 0.465658
 66, 42.0014, 0.999926, 3.31151e-06, 0.0000000E+000, 0.466497
 69, 43.0014, 0.999915, 3.73321e-06, 0.0000000E+000, 0.467437
 72, 44.0014, 0.999903, 4.20496e-06, 0.0000000E+000, 0.468488
 75, 45.0014, 0.99989, 4.73217e-06, 0.0000000E+000, 0.469663
 78, 46.0014, 0.999875, 5.32078e-06, 0.0000000E+000, 0.470974
 81, 47.0014, 0.999858, 5.97727e-06, 0.0000000E+000, 0.472436
 84, 48.0014, 0.999839, 6.70869e-06, 0.0000000E+000, 0.474064
 87, 49.0014, 0.999817, 7.52271e-06, 0.0000000E+000, 0.475877
 90, 50.0014, 0.999793, 8.42766e-06, 0.0000000E+000, 0.477891
 93, 51.0014, 0.999767, 9.43249e-06, 0.0000000E+000, 0.480128
 96, 52.0014, 0.999737, 1.05469e-05, 0.0000000E+000, 0.482608
 99, 53.0014, 0.999703, 1.17812e-05, 0.0000000E+000, 0.485355
 102, 54.0014, 0.999666, 1.31466e-05, 0.0000000E+000, 0.488392
 105, 55.0014, 0.999624, 1.46548e-05, 0.0000000E+000, 0.491747
 108, 56.0014, 0.999578, 1.63183e-05, 0.0000000E+000, 0.495447
 111, 57.0014, 0.999526, 1.81502e-05, 0.0000000E+000, 0.499521
 114, 58.0014, 0.999469, 2.01641e-05, 0.0000000E+000, 0.503998
 117, 59.0014, 0.999405, 2.23743e-05, 0.0000000E+000, 0.508911
 120, 60.0014, 0.999334, 2.47951e-05, 0.0000000E+000, 0.51429
 123, 61.0014, 0.999256, 2.74414e-05, 0.0000000E+000, 0.520169
 126, 62.0014, 0.999169, 3.03275e-05, 0.0000000E+000, 0.52658
 129, 63.0014, 0.999074, 3.34679e-05, 0.0000000E+000, 0.533553
 132, 64.0014, 0.998968, 3.68759e-05, 0.0000000E+000, 0.541118
 135, 65.0014, 0.998852, 4.05641e-05, 0.0000000E+000, 0.549302
 138, 66.0014, 0.998725, 4.45431e-05, 0.0000000E+000, 0.558128
 141, 67.0014, 0.998585, 4.88213e-05, 0.0000000E+000, 0.567614
 144, 68.0014, 0.998431, 5.34044e-05, 0.0000000E+000, 0.577771
 147, 69.0013, 0.998264, 5.82939e-05, 0.0000000E+000, 0.588602
 150, 70.0013, 0.998081, 6.34867e-05, 0.0000000E+000, 0.600098
 153, 71.0013, 0.997882, 6.89739e-05, 0.0000000E+000, 0.612238
 156, 72.0013, 0.997667, 7.47397e-05, 0.0000000E+000, 0.624984
 159, 73.0013, 0.997434, 8.076e-05, 0.0000000E+000, 0.638281
 162, 74.0013, 0.997182, 8.70013e-05, 0.0000000E+000, 0.652053
 165, 75.0013, 0.996911, 9.34192e-05, 0.0000000E+000, 0.666197
 168, 76.0013, 0.996621, 9.99575e-05, 0.0000000E+000, 0.680587
 171, 77.0013, 0.996312, 0.000106547, 0.0000000E+000, 0.695064
 174, 78.0013, 0.995982, 0.000113103, 0.0000000E+000, 0.709438
 177, 79.0013, 0.995633, 0.000119529, 0.0000000E+000, 0.72349
 180, 80.0013, 0.995265, 0.000125711, 0.0000000E+000, 0.736963
 183, 81.0013, 0.994879, 0.000131523, 0.0000000E+000, 0.749574
 186, 82.0012, 0.994476, 0.000136825, 0.0000000E+000, 0.761007
 189, 83.0012, 0.994059, 0.000141469, 0.0000000E+000, 0.770929
 192, 84.0012, 0.993628, 0.000145297, 0.0000000E+000, 0.778987
 195, 85.0012, 0.993188, 0.000148153, 0.0000000E+000, 0.784831
 198, 86.0012, 0.992741, 0.000149884, 0.0000000E+000, 0.788117
 201, 87.0012, 0.99229, 0.000150348, 0.0000000E+000, 0.788532
 204, 88.0012, 0.99184, 0.000149424, 0.0000000E+000, 0.785809
 207, 89.0012, 0.991395, 0.000147023, 0.0000000E+000, 0.779748
 210, 90.0012, 0.990959, 0.000143092, 0.0000000E+000, 0.770241
 213, 91.0013, 0.990538, 0.00013763, 0.0000000E+000, 0.757287
 216, 92.0013, 0.990135, 0.000130688, 0.0000000E+000, 0.741012
 219, 93.0013, 0.989755, 0.000122381, 0.0000000E+000, 0.72168
 222, 94.0013, 0.989402, 0.000112885, 0.0000000E+000, 0.699693
 225, 95.0013, 0.989079, 0.000102434, 0.0000000E+000, 0.67559
 228, 96.0013, 0.988788, 9.13137e-05, 0.0000000E+000, 0.65002
 231, 97.0013, 0.988531, 7.98486e-05, 0.0000000E+000, 0.623717
 234, 98.0013, 0.988309, 6.8381e-05, 0.0000000E+000, 0.597458
 237, 99.0014, 0.988121, 5.7251e-05, 0.0000000E+000, 0.572012
 240, 100.001, 0.987965, 4.67726e-05, 0.0000000E+000, 0.548086
 243, 101.001, 0.98784, 3.72118e-05, 0.0000000E+000, 0.526279
 246, 102.001, 0.987741, 2.87671e-05, 0.0000000E+000, 0.507037
 249, 103.001, 0.987666, 2.15582e-05, 0.0000000E+000, 0.490623
 252, 104.001, 0.98761, 1.56215e-05, 0.0000000E+000, 0.477116
 255, 105.001, 0.987571, 1.09153e-05, 0.0000000E+000, 0.466416
 258, 106.001, 0.987544, 7.33278e-06, 0.0000000E+000, 0.458275
 261, 107.001, 0.987526, 4.72103e-06, 0.0000000E+000, 0.452343
 264, 108.001, 0.987515, 2.90306e-06, 0.0000000E+000, 0.448216
 267, 109.001, 0.987508, 1.69873e-06, 0.0000000E+000, 0.445483
 270, 110.001, 0.987504, 9.42158e-07, 0.0000000E+000, 0.443767
 273, 111.001, 0.987502, 4.9318e-07, 0.0000000E+000, 0.442749
 276, 112.001, 0.987501, 2.4254e-07, 0.0000000E+000, 0.44218
 279, 113.001, 0.9875, 1.11512e-07, 0.0000000E+000, 0.441883
 282, 114.001, 0.9875, 4.76801e-08, 0.0000000E+000, 0.441739
 285, 115.001, 0.9875, 1.88524e-08, 0.0000000E+000, 0.441674
 288, 116.001, 0.9875, 6.85133e-09, 0.0000000E+000, 0.441646
 291, 117.001, 0.9875, 2.27371e-09, 0.0000000E+000, 0.441636
 294, 118.001, 0.9875, 6.84247e-10, 0.0000000E+000, 0.441632
 297, 119.001, 0.9875, 1.85337e-10, 0.0000000E+000, 0.441631
 300, 120.001, 0.9875, 4.4823e-11, 0.0000000E+000, 0.441631
 303, 121.001, 0.9875, 9.59621e-12, 0.0000000E+000, 0.441631
 306, 122.001, 0.9875, 1.80205e-12, 1.51922e-38, 0.441631
 309, 123.001, 0.9875, 2.93922e-13, 2.0787e-38, 0.441631
 312, 124.001, 0.9875, 4.12021e-14, 2.83972e-38, 0.441631
 315, 125.001, 0.9875, 4.90839e-15, 3.87329e-38, 0.441631
 318, 126.001, 0.9875, 4.90975e-16, 5.27482e-38, 0.441631
 321, 127.001, 0.9875, 4.07088e-17, 7.17242e-38, 0.441631
 324, 128.001, 0.9875, 2.75961e-18, 9.73775e-38, 0.441631
 327, 129.001, 0.9875, 1.50712e-19, 1.32005e-37, 0.441631
 330, 130.001, 0.9875, 6.52783e-21, 1.78677e-37, 0.441631
 333, 131.001, 0.9875, 2.20505e-22, 2.41487e-37, 0.441631
 336, 132.001, 0.9875, 5.70575e-24, 3.25892e-37, 0.441631
 339, 133.001, 0.9875, 1.10954e-25, 4.3915e-37, 0.441631
 342, 134.001, 0.9875, 1.5887e-27, 5.90903e-37, 0.441631
 345, 135.001, 0.9875, 1.63886e-29, 7.93939e-37, 0.441631
 348, 136.001, 0.9875, 1.19e-31, 1.0652e-36, 0.441631
 351, 137.001, 0.9875, 5.93307e-34, 1.4271e-36, 0.441631
 354, 138.001, 0.9875, 1.97816e-36, 1.90923e-36, 0.441631
 357, 139.001, 0.9875, 0.0000000E+000, 2.55063e-36, 0.441631
 360, 140.001, 0.9875, 0.0000000E+000, 3.40274e-36, 0.441631
 363, 141.001, 0.9875, 0.0000000E+000, 4.53322e-36, 0.441631
 366, 142.001, 0.9875, 0.0000000E+000, 6.03092e-36, 0.441631
 369, 143.001, 0.9875, 0.0000000E+000, 8.01243e-36, 0.441631
 372, 144.001, 0.9875, 0.0000000E+000, 1.06305e-35, 0.441631
 375, 145.001, 0.9875, 0.0000000E+000, 1.4085e-35, 0.441631
 378, 146.001, 0.9875, 0.0000000E+000, 1.8637e-35, 0.441631
 381, 147.001, 0.9875, 0.0000000E+000, 2.46272e-35, 0.441631
 384, 148.001, 0.9875, 0.0000000E+000, 3.24998e-35, 0.441631
 387, 149.001, 0.9875, 0.0000000E+000, 4.28327e-35, 0.441631
 390, 150.001, 0.9875, 0.0000000E+000, 5.63772e-35, 0.441631
 393, 151.001, 0.9875, 0.0000000E+000, 7.41086e-35, 0.441631
 396, 152.001, 0.9875, 0.0000000E+000, 9.72916e-35, 0.441631
 399, 153.001, 0.9875, 0.0000000E+000, 1.27564e-34, 0.441631
 402, 154.001, 0.9875, 0.0000000E+000, 1.67043e-34, 0.441631
 405, 155.001, 0.9875, 0.0000000E+000, 2.18465e-34, 0.441631
 408, 156.001, 0.9875, 0.0000000E+000, 2.8536e-34, 0.441631
 411, 157.001, 0.9875, 0.0000000E+000, 3.72275e-34, 0.441631
 414, 158.001, 0.9875, 1.21266e-38, 4.85065e-34, 0.441631
 417, 159.001, 0.9875, 1.57813e-38, 6.31253e-34, 0.441631
 420, 160.001, 0.9875, 2.05125e-38, 8.20501e-34, 0.441631
 423, 161.001, 0.9875, 2.66299e-38, 1.0652e-33, 0.441631
 426, 162.001, 0.9875, 3.45303e-38, 1.38121e-33, 0.441631
 429, 163.001, 0.9875, 4.47211e-38, 1.78885e-33, 0.441631
 432, 164.001, 0.9875, 5.78511e-38, 2.31404e-33, 0.441631
 435, 165.001, 0.9875, 7.47481e-38, 2.98992e-33, 0.441631
 438, 166.001, 0.9875, 9.64676e-38, 3.85871e-33, 0.441631
 441, 167.001, 0.9875, 1.24354e-37, 4.97416e-33, 0.441631
 444, 168.001, 0.9875, 1.60117e-37, 6.40469e-33, 0.441631
 447, 169.001, 0.9875, 2.0593e-37, 8.2372e-33, 0.441631
 450, 170.001, 0.9875, 2.6455e-37, 1.0582e-32, 0.441631
 453, 171.001, 0.9875, 3.39474e-37, 1.3579e-32, 0.441631
 456, 172.001, 0.9875, 4.3513e-37, 1.74052e-32, 0.441631
 459, 173.001, 0.9875, 5.57118e-37, 2.22847e-32, 0.441631
 462, 174.001, 0.9875, 7.12519e-37, 2.85007e-32, 0.441631
 465, 175.001, 0.9875, 9.10265e-37, 3.64106e-32, 0.441631
 468, 176.001, 0.9875, 1.16163e-36, 4.6465e-32, 0.441631
 471, 177.001, 0.9875, 1.48079e-36, 5.92316e-32, 0.441631
 474, 178.001, 0.9875, 1.88562e-36, 7.54248e-32, 0.441631
 477, 179.001, 0.9875, 2.39856e-36, 9.59423e-32, 0.441631
 480, 180.001, 0.9875, 3.04779e-36, 1.21912e-31, 0.441631
 483, 181.001, 0.9875, 3.86867e-36, 1.54747e-31, 0.441631
 486, 182.001, 0.9875, 4.9055e-36, 1.9622e-31, 0.441631
 489, 183.001, 0.9875, 6.21373e-36, 2.48549e-31, 0.441631
 492, 184.001, 0.9875, 7.86272e-36, 3.14509e-31, 0.441631
 495, 185.001, 0.9875, 9.93909e-36, 3.97564e-31, 0.441631
 498, 186.001, 0.9875, 1.2551e-35, 5.02039e-31, 0.441631
 501, 187.001, 0.9875, 1.58332e-35, 6.33326e-31, 0.441631
 504, 188.001, 0.9875, 1.99535e-35, 7.98142e-31, 0.441631
 507, 189.001, 0.9875, 2.51211e-35, 1.00484e-30, 0.441631
 510, 190.001, 0.9875, 3.15954e-35, 1.26382e-30, 0.441631
 513, 191.001, 0.9875, 3.96991e-35, 1.58797e-30, 0.441631
 516, 192.001, 0.9875, 4.98324e-35, 1.9933e-30, 0.441631
 519, 193.001, 0.9875, 6.24912e-35, 2.49965e-30, 0.441631
 522, 194.001, 0.9875, 7.82897e-35, 3.13159e-30, 0.441631
 525, 195.001, 0.9875, 9.79879e-35, 3.91952e-30, 0.441631
 528, 196.001, 0.9875, 1.22525e-34, 4.901e-30, 0.441631
 531, 197.001, 0.9875, 1.53061e-34, 6.12244e-30, 0.441631
 534, 198.001, 0.9875, 1.91027e-34, 7.64106e-30, 0.441631
 537, 199.001, 0.9875, 2.38186e-34, 9.52742e-30, 0.441631
 540, 200.001, 0.9875, 2.9671e-34, 1.18684e-29, 0.441631
 543, 201.001, 0.9875, 3.69272e-34, 1.47709e-29, 0.441631
 546, 202.001, 0.9875, 4.59156e-34, 1.83663e-29, 0.441631
 549, 203.001, 0.9875, 5.70397e-34, 2.28159e-29, 0.441631
 552, 204.001, 0.9875, 7.07945e-34, 2.83178e-29, 0.441631
 555, 205.001, 0.9875, 8.77867e-34, 3.51147e-29, 0.441631
 558, 206.001, 0.9875, 1.0876e-33, 4.35039e-29, 0.441631
 561, 207.001, 0.9875, 1.34623e-33, 5.38493e-29, 0.441631
 564, 208.001, 0.9875, 1.6649e-33, 6.65958e-29, 0.441631
 567, 209.001, 0.9875, 2.05717e-33, 8.2287e-29, 0.441631
 570, 210.001, 0.9875, 2.53966e-33, 1.01586e-28, 0.441631
 573, 211.001, 0.9875, 3.13257e-33, 1.25303e-28, 0.441631
 576, 212.001, 0.9875, 3.86056e-33, 1.54422e-28, 0.441631
 579, 213.001, 0.9875, 4.75365e-33, 1.90146e-28, 0.441631
 582, 214.001, 0.9875, 5.84834e-33, 2.33934e-28, 0.441631
 585, 215.001, 0.9875, 7.18902e-33, 2.87561e-28, 0.441631
 588, 216.001, 0.9875, 8.82958e-33, 3.53183e-28, 0.441631
 591, 217.001, 0.9875, 1.08354e-32, 4.33417e-28, 0.441631
 594, 218.001, 0.9875, 1.32859e-32, 5.31435e-28, 0.441631
 597, 219.001, 0.9875, 1.6277e-32, 6.51081e-28, 0.441631
 600, 220.001, 0.9875, 1.99251e-32, 7.97006e-28, 0.441631
 603, 221.001, 0.9875, 2.4371e-32, 9.74839e-28, 0.441631
 606, 222.001, 0.9875, 2.97845e-32, 1.19138e-27, 0.441631
 609, 223.001, 0.9875, 3.63712e-32, 1.45485e-27, 0.441631
 612, 224.001, 0.9875, 4.43787e-32, 1.77515e-27, 0.441631
 615, 225.001, 0.9875, 5.4106e-32, 2.16424e-27, 0.441631
 618, 226.001, 0.9875, 6.5913e-32, 2.63652e-27, 0.441631
 621, 227.001, 0.9875, 8.02332e-32, 3.20933e-27, 0.441631
 624, 228.001, 0.9875, 9.75881e-32, 3.90352e-27, 0.441631
 627, 229.001, 0.9875, 1.18604e-31, 4.74417e-27, 0.441631
 630, 230.001, 0.9875, 1.44035e-31, 5.76139e-27, 0.441631
 633, 231.001, 0.9875, 1.74783e-31, 6.99132e-27, 0.441631
 636, 232.001, 0.9875, 2.11933e-31, 8.47732e-27, 0.441631
 639, 233.001, 0.9875, 2.56784e-31, 1.02713e-26, 0.441631
 642, 234.001, 0.9875, 3.1089e-31, 1.24356e-26, 0.441631
 645, 235.001, 0.9875, 3.76115e-31, 1.50446e-26, 0.441631
 648, 236.001, 0.9875, 4.54683e-31, 1.81873e-26, 0.441631
 651, 237.001, 0.9875, 5.49255e-31, 2.19702e-26, 0.441631
 654, 238.001, 0.9875, 6.63007e-31, 2.65203e-26, 0.441631
 657, 239.001, 0.9875, 7.99729e-31, 3.19892e-26, 0.441631
 660, 240.001, 0.9875, 9.63941e-31, 3.85576e-26, 0.441631
 663, 241.001, 0.9875, 1.16103e-30, 4.64411e-26, 0.441631
 666, 242.001, 0.9875, 1.3974e-30, 5.5896e-26, 0.441631
 669, 243.001, 0.9875, 1.68069e-30, 6.72276e-26, 0.441631
 672, 244.001, 0.9875, 2.01997e-30, 8.07986e-26, 0.441631
 675, 245.001, 0.9875, 2.42601e-30, 9.70403e-26, 0.441631
 678, 246.001, 0.9875, 2.91161e-30, 1.16465e-25, 0.441631
 681, 247.001, 0.9875, 3.49197e-30, 1.39679e-25, 0.441631
 684, 248.001, 0.9875, 4.18509e-30, 1.67404e-25, 0.441631
 687, 249.001, 0.9875, 5.01231e-30, 2.00493e-25, 0.441631
 690, 250.001, 0.9875, 5.9989e-30, 2.39956e-25, 0.441631
 693, 251.001, 0.9875, 7.17476e-30, 2.8699e-25, 0.441631
 696, 252.001, 0.9875, 8.57526e-30, 3.4301e-25, 0.441631
 699, 253.001, 0.9875, 1.02422e-29, 4.09687e-25, 0.441631
 702, 254.001, 0.9875, 1.22249e-29, 4.88996e-25, 0.441631
 705, 255.001, 0.9875, 1.45817e-29, 5.83266e-25, 0.441631
 708, 256.001, 0.9875, 1.73812e-29, 6.95247e-25, 0.441631
 711, 257.001, 0.9875, 2.07044e-29, 8.28178e-25, 0.441631
 714, 258.001, 0.9875, 2.46469e-29, 9.85875e-25, 0.441631
 717, 259.001, 0.9875, 2.93208e-29, 1.17283e-24, 0.441631
 720, 260.001, 0.9875, 3.48583e-29, 1.39433e-24, 0.441631
 723, 261.001, 0.9875, 4.14149e-29, 1.6566e-24, 0.441631
 726, 262.001, 0.9875, 4.9173e-29, 1.96692e-24, 0.441631
 729, 263.001, 0.9875, 5.8347e-29, 2.33388e-24, 0.441631
 732, 264.001, 0.9875, 6.91884e-29, 2.76754e-24, 0.441631
 735, 265.001, 0.9875, 8.19924e-29, 3.27969e-24, 0.441631
 738, 266.001, 0.9875, 9.71046e-29, 3.88419e-24, 0.441631
 741, 267.001, 0.9875, 1.1493e-28, 4.59721e-24, 0.441631
 744, 268.001, 0.9875, 1.35944e-28, 5.43774e-24, 0.441631
 747, 269.001, 0.9875, 1.60699e-28, 6.42797e-24, 0.441631
 750, 270.001, 0.9875, 1.89846e-28, 7.59383e-24, 0.441631
 753, 271.001, 0.9875, 2.24142e-28, 8.96566e-24, 0.441631
 756, 272.001, 0.9875, 2.64472e-28, 1.05789e-23, 0.441631
 759, 273.001, 0.9875, 3.11869e-28, 1.24748e-23, 0.441631
 762, 274.001, 0.9875, 3.6754e-28, 1.47016e-23, 0.441631
 765, 275.001, 0.9875, 4.32889e-28, 1.73156e-23, 0.441631
 768, 276.001, 0.9875, 5.09553e-28, 2.03821e-23, 0.441631
 771, 277.001, 0.9875, 5.99439e-28, 2.39775e-23, 0.441631
 774, 278.001, 0.9875, 7.04765e-28, 2.81906e-23, 0.441631
 777, 279.001, 0.9875, 8.28112e-28, 3.31245e-23, 0.441631
 780, 280.001, 0.9875, 9.72479e-28, 3.88992e-23, 0.441631
 783, 281.001, 0.9875, 1.14135e-27, 4.56541e-23, 0.441631
 786, 282.001, 0.9875, 1.33878e-27, 5.35512e-23, 0.441631
 789, 283.001, 0.9875, 1.56946e-27, 6.27782e-23, 0.441631
 792, 284.001, 0.9875, 1.83883e-27, 7.35531e-23, 0.441631
 795, 285.001, 0.9875, 2.15321e-27, 8.61285e-23, 0.441631
 798, 286.001, 0.9875, 2.51992e-27, 1.00797e-22, 0.441631
 801, 287.001, 0.9875, 2.94743e-27, 1.17897e-22, 0.441631
 804, 288.001, 0.9875, 3.44554e-27, 1.37822e-22, 0.441631
 807, 289.001, 0.9875, 4.0256e-27, 1.61024e-22, 0.441631
 810, 290.001, 0.9875, 4.7007e-27, 1.88028e-22, 0.441631
 813, 291.001, 0.9875, 5.48601e-27, 2.19441e-22, 0.441631
 816, 292.001, 0.9875, 6.39902e-27, 2.55961e-22, 0.441631
 819, 293.001, 0.9875, 7.45992e-27, 2.98397e-22, 0.441631
 822, 294.001, 0.9875, 8.69199e-27, 3.4768e-22, 0.441631
 825, 295.001, 0.9875, 1.01221e-26, 4.04884e-22, 0.441631
 828, 296.001, 0.9875, 1.17812e-26, 4.71249e-22, 0.441631
 831, 297.001, 0.9875, 1.3705e-26, 5.48199e-22, 0.441631
 834, 298.001, 0.9875, 1.59344e-26, 6.37377e-22, 0.441631
 837, 299.001, 0.9875, 1.85168e-26, 7.40672e-22, 0.441631
 840, 300.001, 0.9875, 2.15064e-26, 8.60256e-22, 0.441631
 843, 301.001, 0.9875, 2.49656e-26, 9.98626e-22, 0.441631
 846, 302.001, 0.9875, 2.89663e-26, 1.15865e-21, 0.441631
 849, 303.001, 0.9875, 3.35907e-26, 1.34363e-21, 0.441631
 852, 304.001, 0.9875, 3.89333e-26, 1.55733e-21, 0.441631
 855, 305.001, 0.9875, 4.51027e-26, 1.80411e-21, 0.441631
 858, 306.001, 0.9875, 5.22232e-26, 2.08893e-21, 0.441631
 861, 307.001, 0.9875, 6.04372e-26, 2.41749e-21, 0.441631
 864, 308.001, 0.9875, 6.9908e-26, 2.79632e-21, 0.441631
 867, 309.001, 0.9875, 8.08226e-26, 3.2329e-21, 0.441631
 870, 310.001, 0.9875, 9.33947e-26, 3.73579e-21, 0.441631
 873, 311.001, 0.9875, 1.07869e-25, 4.31476e-21, 0.441631
 876, 312.001, 0.9875, 1.24525e-25, 4.98101e-21, 0.441631
 879, 313.001, 0.9875, 1.43683e-25, 5.74732e-21, 0.441631
 882, 314.001, 0.9875, 1.65707e-25, 6.62829e-21, 0.441631
 885, 315.001, 0.9875, 1.91015e-25, 7.64059e-21, 0.441631
 888, 316.001, 0.9875, 2.20081e-25, 8.80325e-21, 0.441631
 891, 317.001, 0.9875, 2.53449e-25, 1.0138e-20, 0.441631
 894, 318.001, 0.9875, 2.91737e-25, 1.16695e-20, 0.441631
 897, 319.001, 0.9875, 3.35648e-25, 1.34259e-20, 0.441631
 900, 320.001, 0.9875, 3.85987e-25, 1.54395e-20, 0.441631
 903, 321.001, 0.9875, 4.43667e-25, 1.77467e-20, 0.441631
 906, 322.001, 0.9875, 5.09728e-25, 2.03891e-20, 0.441631
 909, 323.001, 0.9875, 5.85352e-25, 2.34141e-20, 0.441631
 912, 324.001, 0.9875, 6.71884e-25, 2.68754e-20, 0.441631
 915, 325.001, 0.9875, 7.70853e-25, 3.08341e-20, 0.441631
 918, 326.001, 0.9875, 8.83994e-25, 3.53598e-20, 0.441631
 921, 327.001, 0.9875, 1.01328e-24, 4.05312e-20, 0.441631
 924, 328.001, 0.9875, 1.16095e-24, 4.64378e-20, 0.441631
 927, 329.001, 0.9875, 1.32953e-24, 5.31812e-20, 0.441631
 930, 330.001, 0.9875, 1.52191e-24, 6.08765e-20, 0.441631
 933, 331.001, 0.9875, 1.74135e-24, 6.9654e-20, 0.441631
 936, 332.001, 0.9875, 1.99154e-24, 7.96617e-20, 0.441631
 939, 333.001, 0.9875, 2.27667e-24, 9.1067e-20, 0.441631
 942, 334.001, 0.9875, 2.60148e-24, 1.04059e-19, 0.441631
 945, 335.001, 0.9875, 2.97132e-24, 1.18853e-19, 0.441631
 948, 336.001, 0.9875, 3.39226e-24, 1.3569e-19, 0.441631
 951, 337.001, 0.9875, 3.87115e-24, 1.54846e-19, 0.441631
 954, 338.001, 0.9875, 4.41574e-24, 1.7663e-19, 0.441631
 957, 339.001, 0.9875, 5.03478e-24, 2.01391e-19, 0.441631
 960, 340.001, 0.9875, 5.73814e-24, 2.29526e-19, 0.441631
 963, 341.001, 0.9875, 6.53698e-24, 2.61479e-19, 0.441631
 966, 342.001, 0.9875, 7.44387e-24, 2.97755e-19, 0.441631
 969, 343.001, 0.9875, 8.473e-24, 3.3892e-19, 0.441631
 972, 344.001, 0.9875, 9.64037e-24, 3.85615e-19, 0.441631
 975, 345.001, 0.9875, 1.0964e-23, 4.3856e-19, 0.441631
 978, 346.001, 0.9875, 1.24642e-23, 4.98567e-19, 0.441631
 981, 347.001, 0.9875, 1.41637e-23, 5.6655e-19, 0.441631
 984, 348.001, 0.9875, 1.60885e-23, 6.43538e-19, 0.441631
 987, 349.001, 0.9875, 1.82672e-23, 7.30689e-19, 0.441631
 990, 350.001, 0.9875, 2.07326e-23, 8.29304e-19, 0.441631
 993, 351.001, 0.9875, 2.35212e-23, 9.40847e-19, 0.441631
 996, 352.001, 0.9875, 2.6674e-23, 1.06696e-18, 0.441631
 999, 353.001, 0.9875, 3.02373e-23, 1.20949e-18, 0.441631
 1002, 354.001, 0.9875, 3.4263e-23, 1.37052e-18, 0.441631
 1005, 355.001, 0.9875, 3.88091e-23, 1.55237e-18, 0.441631
 1008, 356.001, 0.9875, 4.39411e-23, 1.75764e-18, 0.441631
 1011, 357.001, 0.9875, 4.9732e-23, 1.98928e-18, 0.441631
 1014, 358.001, 0.9875, 5.62641e-23, 2.25056e-18, 0.441631
 1017, 359.001, 0.9875, 6.36293e-23, 2.54517e-18, 0.441631
 1020, 360.001, 0.9875, 7.19306e-23, 2.87723e-18, 0.441631
 1023, 361.001, 0.9875, 8.12836e-23, 3.25134e-18, 0.441631
 1026, 362.001, 0.9875, 9.18173e-23, 3.67269e-18, 0.441631
 1029, 363.001, 0.9875, 1.03676e-22, 4.14705e-18, 0.441631
 1032, 364.001, 0.9875, 1.17023e-22, 4.6809e-18, 0.441631
 1035, 365.001, 0.9875, 1.32037e-22, 5.28146e-18, 0.441631
 1038, 366.001, 0.9875, 1.48921e-22, 5.95683e-18, 0.441631
 1041, 367.001, 0.9875, 1.67901e-22, 6.71603e-18, 0.441631
 1044, 368.001, 0.9875, 1.89229e-22, 7.56916e-18, 0.441631
 1047, 369.001, 0.9875, 2.13187e-22, 8.52749e-18, 0.441631
 1050, 370.001, 0.9875, 2.4009e-22, 9.60359e-18, 0.441631
 1053, 371.001, 0.9875, 2.70287e-22, 1.08115e-17, 0.441631
 1056, 372.001, 0.9875, 3.04171e-22, 1.21668e-17, 0.441631
 1059, 373.001, 0.9875, 3.42178e-22, 1.36871e-17, 0.441631
 1062, 374.001, 0.9875, 3.84793e-22, 1.53917e-17, 0.441631
 1065, 375.001, 0.9875, 4.3256e-22, 1.73024e-17, 0.441631
 1068, 376.001, 0.9875, 4.8608e-22, 1.94432e-17, 0.441631
 1071, 377.001, 0.9875, 5.46027e-22, 2.18411e-17, 0.441631
 1074, 378.001, 0.9875, 6.13148e-22, 2.45259e-17, 0.441631
 1077, 379.001, 0.9875, 6.88274e-22, 2.7531e-17, 0.441631
 1080, 380.001, 0.9875, 7.72332e-22, 3.08933e-17, 0.441631
 1083, 381.001, 0.9875, 8.66351e-22, 3.46541e-17, 0.441631
 1086, 382.001, 0.9875, 9.71475e-22, 3.8859e-17, 0.441631
 1089, 383.001, 0.9875, 1.08897e-21, 4.3559e-17, 0.441631
 1092, 384.001, 0.9875, 1.22026e-21, 4.88104e-17, 0.441631
 1095, 385.001, 0.9875, 1.3669e-21, 5.46761e-17, 0.441631
 1098, 386.001, 0.9875, 1.53064e-21, 6.12255e-17, 0.441631
 1101, 387.001, 0.9875, 1.7134e-21, 6.8536e-17, 0.441631
 1104, 388.001, 0.9875, 1.91733e-21, 7.66932e-17, 0.441631
 1107, 389.001, 0.9875, 2.1448e-21, 8.57922e-17, 0.441631
 1110, 390.001, 0.9875, 2.39845e-21, 9.59382e-17, 0.441631
 1113, 391.001, 0.9875, 2.6812e-21, 1.07248e-16, 0.441631
 1116, 392.001, 0.9875, 2.99627e-21, 1.19851e-16, 0.441631
 1119, 393.001, 0.9875, 3.34725e-21, 1.3389e-16, 0.441631
 1122, 394.001, 0.9875, 3.7381e-21, 1.49524e-16, 0.441631
 1125, 395.001, 0.9875, 4.17322e-21, 1.66929e-16, 0.441631
 1128, 396.001, 0.9875, 4.65744e-21, 1.86298e-16, 0.441631
 1131, 397.001, 0.9875, 5.19615e-21, 2.07846e-16, 0.441631
 1134, 398.001, 0.9875, 5.79528e-21, 2.31811e-16, 0.441631
 1137, 399.001, 0.9875, 6.46139e-21, 2.58455e-16, 0.441631
 1140, 400.001, 0.9875, 7.20173e-21, 2.88069e-16, 0.441631
 1143, 401.001, 0.9875, 8.02432e-21, 3.20973e-16, 0.441631
 1146, 402.001, 0.9875, 8.938e-21, 3.5752e-16, 0.441631
 1149, 403.001, 0.9875, 9.95255e-21, 3.98102e-16, 0.441631
 1152, 404.001, 0.9875, 1.10787e-20, 4.43149e-16, 0.441631
 1155, 405.001, 0.9875, 1.23285e-20, 4.93138e-16, 0.441631
 1158, 406.001, 0.9875, 1.37148e-20, 5.48593e-16, 0.441631
 1161, 407.001, 0.9875, 1.52523e-20, 6.10093e-16, 0.441631
 1164, 408.001, 0.9875, 1.69569e-20, 6.78276e-16, 0.441631
 1167, 409.001, 0.9875, 1.88461e-20, 7.53845e-16, 0.441631
 1170, 410.001, 0.9875, 2.09393e-20, 8.37573e-16, 0.441631
 1173, 411.001, 0.9875, 2.32579e-20, 9.30315e-16, 0.441631
 1176, 412.001, 0.9875, 2.58252e-20, 1.03301e-15, 0.441631
 1179, 413.001, 0.9875, 2.86672e-20, 1.14669e-15, 0.441631
 1182, 414.001, 0.9875, 3.18123e-20, 1.27249e-15, 0.441631
 1185, 415.001, 0.9875, 3.52918e-20, 1.41167e-15, 0.441631
 1188, 416.001, 0.9875, 3.914e-20, 1.5656e-15, 0.441631
 1191, 417.001, 0.9875, 4.33949e-20, 1.7358e-15, 0.441631
 1194, 418.001, 0.9875, 4.80979e-20, 1.92392e-15, 0.441631
 1197, 419.001, 0.9875, 5.32947e-20, 2.13179e-15, 0.441631
 1200, 420.001, 0.9875, 5.90356e-20, 2.36143e-15, 0.441631
 1203, 421.001, 0.9875, 6.53756e-20, 2.61503e-15, 0.441631
 1206, 422.001, 0.9875, 7.23753e-20, 2.89501e-15, 0.441631
 1209, 423.001, 0.9875, 8.0101e-20, 3.20404e-15, 0.441631
 1212, 424.001, 0.9875, 8.86255e-20, 3.54502e-15, 0.441631
 1215, 425.001, 0.9875, 9.80289e-20, 3.92116e-15, 0.441631
 1218, 426.001, 0.9875, 1.08399e-19, 4.33595e-15, 0.441631
 1221, 427.001, 0.9875, 1.19831e-19, 4.79324e-15, 0.441631
 1224, 428.001, 0.9875, 1.32431e-19, 5.29725e-15, 0.441631
 1227, 429.001, 0.9875, 1.46315e-19, 5.85258e-15, 0.441631
 1230, 430.001, 0.9875, 1.61608e-19, 6.4643e-15, 0.441631
 1233, 431.001, 0.9875, 1.78449e-19, 7.13795e-15, 0.441631
 1236, 432.001, 0.9875, 1.96989e-19, 7.87957e-15, 0.441631
 1239, 433.001, 0.9875, 2.17395e-19, 8.69582e-15, 0.441631
 1242, 434.001, 0.9875, 2.39849e-19, 9.59395e-15, 0.441631
 1245, 435.001, 0.9875, 2.64547e-19, 1.05819e-14, 0.441631
 1248, 436.001, 0.9875, 2.91709e-19, 1.16684e-14, 0.441631
 1251, 437.001, 0.9875, 3.21571e-19, 1.28628e-14, 0.441631
 1254, 438.001, 0.9875, 3.54392e-19, 1.41757e-14, 0.441631
 1257, 439.001, 0.9875, 3.90457e-19, 1.56183e-14, 0.441631
 1260, 440.001, 0.9875, 4.30075e-19, 1.7203e-14, 0.441631
 1263, 441.001, 0.9875, 4.73584e-19, 1.89434e-14, 0.441631
 1266, 442.001, 0.9875, 5.21355e-19, 2.08542e-14, 0.441631
 1269, 443.001, 0.9875, 5.73791e-19, 2.29516e-14, 0.441631
 1272, 444.001, 0.9875, 6.31332e-19, 2.52533e-14, 0.441631
 1275, 445.001, 0.9875, 6.94458e-19, 2.77783e-14, 0.441631
 1278, 446.001, 0.9875, 7.63693e-19, 3.05477e-14, 0.441631
 1281, 447.001, 0.9875, 8.39609e-19, 3.35844e-14, 0.441631
 1284, 448.001, 0.9875, 9.2283e-19, 3.69132e-14, 0.441631
 1287, 449.001, 0.9875, 1.01403e-18, 4.05613e-14, 0.441631
 1290, 450.001, 0.9875, 1.11396e-18, 4.45584e-14, 0.441631
 1293, 451.001, 0.9875, 1.22342e-18, 4.89367e-14, 0.441631
 1296, 452.001, 0.9875, 1.34328e-18, 5.37312e-14, 0.441631
 1299, 453.001, 0.9875, 1.47451e-18, 5.89804e-14, 0.441631
 1302, 454.001, 0.9875, 1.61814e-18, 6.47257e-14, 0.441631
 1305, 455.001, 0.9875, 1.77531e-18, 7.10126e-14, 0.441631
 1308, 456.001, 0.9875, 1.94726e-18, 7.78903e-14, 0.441631
 1311, 457.001, 0.9875, 2.13531e-18, 8.54125e-14, 0.441631
 1314, 458.001, 0.9875, 2.34094e-18, 9.36375e-14, 0.441631
 1317, 459.001, 0.9875, 2.56572e-18, 1.02629e-13, 0.441631
 1320, 460.001, 0.9875, 2.81138e-18, 1.12455e-13, 0.441631
 1323, 461.001, 0.9875, 3.0798e-18, 1.23192e-13, 0.441631
 1326, 462.001, 0.9875, 3.37301e-18, 1.3492e-13, 0.441631
 1329, 463.001, 0.9875, 3.69322e-18, 1.47729e-13, 0.441631
 1332, 464.001, 0.9875, 4.04284e-18, 1.61713e-13, 0.441631
 1335, 465.001, 0.9875, 4.42446e-18, 1.76978e-13, 0.441631
 1338, 466.001, 0.9875, 4.84093e-18, 1.93637e-13, 0.441631
 1341, 467.001, 0.9875, 5.29531e-18, 2.11812e-13, 0.441631
 1344, 468.001, 0.9875, 5.79094e-18, 2.31638e-13, 0.441631
 1347, 469.001, 0.9875, 6.33143e-18, 2.53257e-13, 0.441631
 1350, 470.001, 0.9875, 6.92071e-18, 2.76828e-13, 0.441631
 1353, 471.001, 0.9875, 7.56302e-18, 3.02521e-13, 0.441631
 1356, 472.001, 0.9875, 8.26297e-18, 3.30519e-13, 0.441631
 1359, 473.001, 0.9875, 9.02557e-18, 3.61023e-13, 0.441631
 1362, 474.001, 0.9875, 9.85622e-18, 3.94249e-13, 0.441631
 1365, 475.001, 0.9875, 1.07608e-17, 4.30431e-13, 0.441631
 1368, 476.001, 0.9875, 1.17456e-17, 4.69824e-13, 0.441631
 1371, 477.001, 0.9875, 1.28176e-17, 5.12702e-13, 0.441631
 1374, 478.001, 0.9875, 1.39841e-17, 5.59364e-13, 0.441631
 1377, 479.001, 0.9875, 1.52533e-17, 6.10131e-13, 0.441631
 1380, 480.001, 0.9875, 1.66338e-17, 6.65352e-13, 0.441631
 1383, 481.001, 0.9875, 1.81351e-17, 7.25404e-13, 0.441631
 1386, 482.001, 0.9875, 1.97674e-17, 7.90696e-13, 0.441631
 1389, 483.001, 0.9875, 2.15417e-17, 8.61667e-13, 0.441631
 1392, 484.001, 0.9875, 2.34699e-17, 9.38796e-13, 0.441631
 1395, 485.001, 0.9875, 2.55649e-17, 1.0226e-12, 0.441631
 1398, 486.001, 0.9875, 2.78407e-17, 1.11363e-12, 0.441631
 1401, 487.001, 0.9875, 3.03123e-17, 1.21249e-12, 0.441631
 1404, 488.001, 0.9875, 3.29958e-17, 1.31983e-12, 0.441631
 1407, 489.001, 0.9875, 3.5909e-17, 1.43636e-12, 0.441631
 1410, 490.001, 0.9875, 3.90707e-17, 1.56283e-12, 0.441631
 1413, 491.001, 0.9875, 4.25015e-17, 1.70006e-12, 0.441631
 1416, 492.001, 0.9875, 4.62233e-17, 1.84893e-12, 0.441631
 1419, 493.001, 0.9875, 5.02599e-17, 2.0104e-12, 0.441631
 1422, 494.001, 0.9875, 5.46372e-17, 2.18549e-12, 0.441631
 1425, 495.001, 0.9875, 5.93828e-17, 2.37531e-12, 0.441631
 1428, 496.001, 0.9875, 6.45266e-17, 2.58107e-12, 0.441631
 1431, 497.001, 0.9875, 7.01009e-17, 2.80404e-12, 0.441631
 1434, 498.001, 0.9875, 7.61403e-17, 3.04561e-12, 0.441631
 1437, 499.001, 0.9875, 8.26824e-17, 3.30729e-12, 0.441631
 1440, 500.001, 0.9875, 8.97674e-17, 3.59069e-12, 0.441631
 1443, 501.001, 0.9875, 9.74388e-17, 3.89755e-12, 0.441631
 1446, 502.001, 0.9875, 1.05743e-16, 4.22974e-12, 0.441631
 1449, 503.001, 0.9875, 1.14732e-16, 4.58927e-12, 0.441631
 1452, 504.001, 0.9875, 1.24458e-16, 4.97831e-12, 0.441631
 1455, 505.001, 0.9875, 1.3498e-16, 5.39921e-12, 0.441631
 1458, 506.001, 0.9875, 1.46362e-16, 5.85447e-12, 0.441631
 1461, 507.001, 0.9875, 1.5867e-16, 6.3468e-12, 0.441631
 1464, 508.001, 0.9875, 1.71978e-16, 6.87911e-12, 0.441631
 1467, 509.001, 0.9875, 1.86363e-16, 7.45453e-12, 0.441631
 1470, 510.001, 0.9875, 2.01911e-16, 8.07643e-12, 0.441631
 1473, 511.001, 0.9875, 2.1871e-16, 8.74842e-12, 0.441631
 1476, 512.001, 0.9875, 2.3686e-16, 9.47439e-12, 0.441631
 1479, 513.001, 0.9875, 2.56463e-16, 1.02585e-11, 0.441631
 1482, 514.001, 0.9875, 2.77633e-16, 1.11053e-11, 0.441631
 1485, 515.001, 0.9875, 3.0049e-16, 1.20196e-11, 0.441631
 1488, 516.001, 0.9875, 3.25163e-16, 1.30065e-11, 0.441631
 1491, 517.001, 0.9875, 3.51792e-16, 1.40717e-11, 0.441631
 1494, 518.001, 0.9875, 3.80526e-16, 1.5221e-11, 0.441631
 1497, 519.001, 0.9875, 4.11525e-16, 1.6461e-11, 0.441631
 1500, 520.001, 0.9875, 4.44962e-16, 1.77985e-11, 0.441631
 1503, 521.001, 0.9875, 4.81021e-16, 1.92408e-11, 0.441631
 1506, 522.001, 0.9875, 5.199e-16, 2.0796e-11, 0.441631
 1509, 523.001, 0.9875, 5.61812e-16, 2.24725e-11, 0.441631
 1512, 524.001, 0.9875, 6.06985e-16, 2.42794e-11, 0.441631
 1515, 525.001, 0.9875, 6.55662e-16, 2.62265e-11, 0.441631
 1518, 526.001, 0.9875, 7.08107e-16, 2.83243e-11, 0.441631
 1521, 527.001, 0.9875, 7.64599e-16, 3.0584e-11, 0.441631
 1524, 528.001, 0.9875, 8.2544e-16, 3.30176e-11, 0.441631
 1527, 529.001, 0.9875, 8.90953e-16, 3.56381e-11, 0.441631
 1530, 530.001, 0.9875, 9.61482e-16, 3.84593e-11, 0.441631
 1533, 531.001, 0.9875, 1.0374e-15, 4.14959e-11, 0.441631
 1536, 532.001, 0.9875, 1.1191e-15, 4.47638e-11, 0.441631
 1539, 533.001, 0.9875, 1.207e-15, 4.828e-11, 0.441631
 1542, 534.001, 0.9875, 1.30157e-15, 5.20627e-11, 0.441631
 1545, 535.001, 0.9875, 1.40328e-15, 5.61313e-11, 0.441631
 1548, 536.001, 0.9875, 1.51266e-15, 6.05065e-11, 0.441631
 1551, 537.001, 0.9875, 1.63027e-15, 6.52107e-11, 0.441631
 1554, 538.001, 0.9875, 1.75669e-15, 7.02676e-11, 0.441631
 1557, 539.001, 0.9875, 1.89257e-15, 7.57028e-11, 0.441631
 1560, 540.001, 0.9875, 2.03859e-15, 8.15435e-11, 0.441631
 1563, 541.001, 0.9875, 2.19547e-15, 8.78187e-11, 0.441631
 1566, 542.001, 0.9875, 2.36399e-15, 9.45596e-11, 0.441631
 1569, 543.001, 0.9875, 2.54499e-15, 1.018e-10, 0.441631
 1572, 544.001, 0.9875, 2.73935e-15, 1.09574e-10, 0.441631
 1575, 545.001, 0.9875, 2.94802e-15, 1.17921e-10, 0.441631
 1578, 546.001, 0.9875, 3.17203e-15, 1.26881e-10, 0.441631
 1581, 547.001, 0.9875, 3.41244e-15, 1.36498e-10, 0.441631
 1584, 548.001, 0.9875, 3.67042e-15, 1.46817e-10, 0.441631
 1587, 549.001, 0.9875, 3.94721e-15, 1.57888e-10, 0.441631
 1590, 550.001, 0.9875, 4.24411e-15, 1.69765e-10, 0.441631
 1593, 551.001, 0.9875, 4.56255e-15, 1.82502e-10, 0.441631
 1596, 552.001, 0.9875, 4.90402e-15, 1.96161e-10, 0.441631
 1599, 553.001, 0.9875, 5.27012e-15, 2.10805e-10, 0.441631
 1602, 554.001, 0.9875, 5.66257e-15, 2.26503e-10, 0.441631
 1605, 555.001, 0.9875, 6.08319e-15, 2.43328e-10, 0.441631
 1608, 556.001, 0.9875, 6.53393e-15, 2.61357e-10, 0.441631
 1611, 557.001, 0.9875, 7.01685e-15, 2.80674e-10, 0.441631
 1614, 558.001, 0.9875, 7.53417e-15, 3.01367e-10, 0.441631
 1617, 559.001, 0.9875, 8.08825e-15, 3.2353e-10, 0.441631
 1620, 560.001, 0.9875, 8.6816e-15, 3.47264e-10, 0.441631
 1623, 561.001, 0.9875, 9.3169e-15, 3.72676e-10, 0.441631
 1626, 562.001, 0.9875, 9.99699e-15, 3.9988e-10, 0.441631
 1629, 563.001, 0.9875, 1.07249e-14, 4.28997e-10, 0.441631
 1632, 564.001, 0.9875, 1.15039e-14, 4.60157e-10, 0.441631
 1635, 565.001, 0.9875, 1.23374e-14, 4.93498e-10, 0.441631
 1638, 566.001, 0.9875, 1.32292e-14, 5.29166e-10, 0.441631
 1641, 567.001, 0.9875, 1.4183e-14, 5.67318e-10, 0.441631
 1644, 568.001, 0.9875, 1.5203e-14, 6.0812e-10, 0.441631
 1647, 569.001, 0.9875, 1.62937e-14, 6.51749e-10, 0.441631
 1650, 570.001, 0.9875, 1.74598e-14, 6.98394e-10, 0.441631
 1653, 571.001, 0.9875, 1.87063e-14, 7.48254e-10, 0.441631
 1656, 572.001, 0.9875, 2.00386e-14, 8.01543e-10, 0.441631
 1659, 573.001, 0.9875, 2.14622e-14, 8.58487e-10, 0.441631
 1662, 574.001, 0.9875, 2.29832e-14, 9.19328e-10, 0.441631
 1665, 575.001, 0.9875, 2.46081e-14, 9.84322e-10, 0.441631
 1668, 576.001, 0.9875, 2.63435e-14, 1.05374e-09, 0.441631
 1671, 577.001, 0.9875, 2.81969e-14, 1.12788e-09, 0.441631
 1674, 578.001, 0.9875, 3.01758e-14, 1.20703e-09, 0.441631
 1677, 579.001, 0.9875, 3.22885e-14, 1.29154e-09, 0.441631
 1680, 580.001, 0.9875, 3.45436e-14, 1.38174e-09, 0.441631
 1683, 581.001, 0.9875, 3.69503e-14, 1.47801e-09, 0.441631
 1686, 582.001, 0.9875, 3.95186e-14, 1.58074e-09, 0.441631
 1689, 583.001, 0.9875, 4.22586e-14, 1.69035e-09, 0.441631
 1692, 584.001, 0.9875, 4.51817e-14, 1.80727e-09, 0.441631
 1695, 585.001, 0.9875, 4.82993e-14, 1.93197e-09, 0.441631
 1698, 586.001, 0.9875, 5.16241e-14, 2.06496e-09, 0.441631
 1701, 587.001, 0.9875, 5.51692e-14, 2.20677e-09, 0.441631
 1704, 588.001, 0.9875, 5.89486e-14, 2.35795e-09, 0.441631
 1707, 589.001, 0.9875, 6.29773e-14, 2.51909e-09, 0.441631
 1710, 590.001, 0.9875, 6.7271e-14, 2.69084e-09, 0.441631
 1713, 591.001, 0.9875, 7.18465e-14, 2.87386e-09, 0.441631
 1716, 592.001, 0.9875, 7.67215e-14, 3.06886e-09, 0.441631
 1719, 593.001, 0.9875, 8.19149e-14, 3.2766e-09, 0.441631
 1722, 594.001, 0.9875, 8.74466e-14, 3.49787e-09, 0.441631
 1725, 595.001, 0.9875, 9.33379e-14, 3.73351e-09, 0.441631
 1728, 596.001, 0.9875, 9.9611e-14, 3.98444e-09, 0.441631
 1731, 597.001, 0.9875, 1.0629e-13, 4.2516e-09, 0.441631
 1734, 598.001, 0.9875, 1.134e-13, 4.53599e-09, 0.441631
 1737, 599.001, 0.9875, 1.20967e-13, 4.83869e-09, 0.441631
 1740, 600.001, 0.9875, 1.2902e-13, 5.16082e-09, 0.441631
 1743, 601.001, 0.9875, 1.3759e-13, 5.50359e-09, 0.441631
 1746, 602.001, 0.9875, 1.46706e-13, 5.86826e-09, 0.441631
 1749, 603.001, 0.9875, 1.56404e-13, 6.25618e-09, 0.441631
 1752, 604.001, 0.9875, 1.66719e-13, 6.66876e-09, 0.441631
 1755, 605.001, 0.9875, 1.77688e-13, 7.10752e-09, 0.441631
 1758, 606.001, 0.9875, 1.89351e-13, 7.57406e-09, 0.441631
 1761, 607.001, 0.9875, 2.01751e-13, 8.07005e-09, 0.441631
 1764, 608.001, 0.9875, 2.14932e-13, 8.59728e-09, 0.441631
 1767, 609.001, 0.9875, 2.28941e-13, 9.15764e-09, 0.441631
 1770, 610.001, 0.9875, 2.43828e-13, 9.75313e-09, 0.441631
 1773, 611.001, 0.9875, 2.59647e-13, 1.03859e-08, 0.441631
 1776, 612.001, 0.9875, 2.76452e-13, 1.10581e-08, 0.441631
 1779, 613.001, 0.9875, 2.94303e-13, 1.17721e-08, 0.441631
 1782, 614.001, 0.9875, 3.13263e-13, 1.25305e-08, 0.441631
 1785, 615.001, 0.9875, 3.33398e-13, 1.33359e-08, 0.441631
 1788, 616.001, 0.9875, 3.54777e-13, 1.41911e-08, 0.441631
 1791, 617.001, 0.9875, 3.77474e-13, 1.50989e-08, 0.441631
 1794, 618.001, 0.9875, 4.01567e-13, 1.60627e-08, 0.441631
 1797, 619.001, 0.9875, 4.27139e-13, 1.70855e-08, 0.441631
 1800, 620.001, 0.9875, 4.54276e-13, 1.8171e-08, 0.441631
 1803, 621.001, 0.9875, 4.83071e-13, 1.93228e-08, 0.441631
 1806, 622.001, 0.9875, 5.1362e-13, 2.05448e-08, 0.441631
 1809, 623.001, 0.9875, 5.46027e-13, 2.18411e-08, 0.441631
 1812, 624.001, 0.9875, 5.804e-13, 2.3216e-08, 0.441631
 1815, 625.001, 0.9875, 6.16852e-13, 2.46741e-08, 0.441631
 1818, 626.001, 0.9875, 6.55505e-13, 2.62202e-08, 0.441631
 1821, 627.001, 0.9875, 6.96485e-13, 2.78594e-08, 0.441631
 1824, 628.001, 0.9875, 7.39929e-13, 2.95971e-08, 0.441631
 1827, 629.001, 0.9875, 7.85976e-13, 3.14391e-08, 0.441631
 1830, 630.001, 0.9875, 8.34778e-13, 3.33911e-08, 0.441631
 1833, 631.001, 0.9875, 8.86492e-13, 3.54597e-08, 0.441631
 1836, 632.001, 0.9875, 9.41284e-13, 3.76514e-08, 0.441631
 1839, 633.001, 0.9875, 9.9933e-13, 3.99732e-08, 0.441631
 1842, 634.001, 0.9875, 1.06082e-12, 4.24327e-08, 0.441631
 1845, 635.001, 0.9875, 1.12594e-12, 4.50375e-08, 0.441631
 1848, 636.001, 0.9875, 1.1949e-12, 4.7796e-08, 0.441631
 1851, 637.001, 0.9875, 1.26792e-12, 5.07168e-08, 0.441631
 1854, 638.001, 0.9875, 1.34523e-12, 5.38091e-08, 0.441631
 1857, 639.001, 0.9875, 1.42706e-12, 5.70825e-08, 0.441631
 1860, 640.001, 0.9875, 1.51368e-12, 6.05473e-08, 0.441631
 1863, 641.001, 0.9875, 1.60535e-12, 6.4214e-08, 0.441631
 1866, 642.001, 0.9875, 1.70235e-12, 6.80941e-08, 0.441631
 1869, 643.001, 0.9875, 1.80498e-12, 7.21994e-08, 0.441631
 1872, 644.001, 0.9875, 1.91356e-12, 7.65423e-08, 0.441631
 1875, 645.001, 0.9875, 2.02841e-12, 8.11363e-08, 0.441631
 1878, 646.001, 0.9875, 2.14987e-12, 8.5995e-08, 0.441631
 1881, 647.001, 0.9875, 2.27833e-12, 9.11331e-08, 0.441631
 1884, 648.001, 0.9875, 2.41415e-12, 9.65661e-08, 0.441631
 1887, 649.001, 0.9875, 2.55775e-12, 1.0231e-07, 0.441631
 1890, 650.001, 0.9875, 2.70956e-12, 1.08382e-07, 0.441631
 1893, 651.001, 0.9875, 2.87001e-12, 1.14801e-07, 0.441631
 1896, 652.001, 0.9875, 3.03959e-12, 1.21584e-07, 0.441631
 1899, 653.001, 0.9875, 3.21879e-12, 1.28752e-07, 0.441631
 1902, 654.001, 0.9875, 3.40813e-12, 1.36325e-07, 0.441631
 1905, 655.001, 0.9875, 3.60817e-12, 1.44327e-07, 0.441631
 1908, 656.001, 0.9875, 3.81948e-12, 1.52779e-07, 0.441631
 1911, 657.001, 0.9875, 4.04267e-12, 1.61707e-07, 0.441631
 1914, 658.001, 0.9875, 4.27838e-12, 1.71135e-07, 0.441631
 1917, 659.001, 0.9875, 4.52728e-12, 1.81091e-07, 0.441631
 1920, 660.001, 0.9875, 4.79008e-12, 1.91603e-07, 0.441631
 1923, 661.001, 0.9875, 5.06752e-12, 2.02701e-07, 0.441631
 1926, 662.001, 0.9875, 5.36039e-12, 2.14416e-07, 0.441631
 1929, 663.001, 0.9875, 5.66951e-12, 2.2678e-07, 0.441631
 1932, 664.001, 0.9875, 5.99573e-12, 2.39829e-07, 0.441631
 1935, 665.001, 0.9875, 6.33996e-12, 2.53599e-07, 0.441631
 1938, 666.001, 0.9875, 6.70317e-12, 2.68127e-07, 0.441631
 1941, 667.001, 0.9875, 7.08634e-12, 2.83453e-07, 0.441631
 1944, 668.001, 0.9875, 7.49052e-12, 2.99621e-07, 0.441631
 1947, 669.001, 0.9875, 7.91683e-12, 3.16673e-07, 0.441631
 1950, 670.001, 0.9875, 8.36643e-12, 3.34657e-07, 0.441631
 1953, 671.001, 0.9875, 8.84051e-12, 3.53621e-07, 0.441631
 1956, 672.001, 0.9875, 9.34038e-12, 3.73615e-07, 0.441631
 1959, 673.001, 0.9875, 9.86736e-12, 3.94694e-07, 0.441631
 1962, 674.001, 0.9875, 1.04229e-11, 4.16914e-07, 0.441631
 1965, 675.001, 0.9875, 1.10084e-11, 4.40334e-07, 0.441631
 1968, 676.001, 0.9875, 1.16254e-11, 4.65017e-07, 0.441631
 1971, 677.001, 0.9875, 1.22757e-11, 4.91026e-07, 0.441631
 1974, 678.001, 0.9875, 1.29608e-11, 5.18431e-07, 0.441631
 1977, 679.001, 0.9875, 1.36826e-11, 5.47303e-07, 0.441631
 1980, 680.001, 0.9875, 1.44429e-11, 5.77717e-07, 0.441631
 1983, 681.001, 0.9875, 1.52438e-11, 6.09752e-07, 0.441631
 1986, 682.001, 0.9875, 1.60873e-11, 6.43491e-07, 0.441631
 1989, 683.001, 0.9875, 1.69755e-11, 6.7902e-07, 0.441631
 1992, 684.001, 0.9875, 1.79108e-11, 7.1643e-07, 0.441631
 1995, 685.001, 0.9875, 1.88954e-11, 7.55817e-07, 0.441631
 1998, 686.001, 0.9875, 1.9932e-11, 7.9728e-07, 0.441631
 2001, 687.001, 0.9875, 2.10231e-11, 8.40924e-07, 0.441631
 2004, 688.001, 0.9875, 2.21715e-11, 8.86859e-07, 0.441631
 2007, 689.001, 0.9875, 2.338e-11, 9.352e-07, 0.441631
 2010, 690.001, 0.9875, 2.46517e-11, 9.86067e-07, 0.441631
 2013, 691.001, 0.9875, 2.59897e-11, 1.03959e-06, 0.441631
 2016, 692.001, 0.9875, 2.73973e-11, 1.09589e-06, 0.441631
 2019, 693.001, 0.9875, 2.8878e-11, 1.15512e-06, 0.441631
 2022, 694.001, 0.9875, 3.04354e-11, 1.21741e-06, 0.441631
 2025, 695.001, 0.9875, 3.20733e-11, 1.28293e-06, 0.441631
 2028, 696.001, 0.9875, 3.37957e-11, 1.35183e-06, 0.441631
 2031, 697.001, 0.9875, 3.56067e-11, 1.42427e-06, 0.441631
 2034, 698.001, 0.9875, 3.75108e-11, 1.50043e-06, 0.441631
 2037, 699.001, 0.9875, 3.95125e-11, 1.5805e-06, 0.441631
 2040, 700.001, 0.9875, 4.16165e-11, 1.66466e-06, 0.441631
 2043, 701.001, 0.9875, 4.38279e-11, 1.75312e-06, 0.441631
 2046, 702.001, 0.9875, 4.61519e-11, 1.84608e-06, 0.441631
 2049, 703.001, 0.9875, 4.8594e-11, 1.94376e-06, 0.441631
 2052, 704.001, 0.9875, 5.116e-11, 2.0464e-06, 0.441631
 2055, 705.001, 0.9875, 5.38557e-11, 2.15423e-06, 0.441631
 2058, 706.001, 0.9875, 5.66876e-11, 2.2675e-06, 0.441631
 2061, 707.001, 0.9875, 5.96621e-11, 2.38648e-06, 0.441631
 2064, 708.001, 0.9875, 6.27861e-11, 2.51144e-06, 0.441631
 2067, 709.001, 0.9875, 6.60669e-11, 2.64267e-06, 0.441631
 2070, 710.001, 0.9875, 6.95118e-11, 2.78047e-06, 0.441631
 2073, 711.001, 0.9875, 7.31289e-11, 2.92516e-06, 0.441631
 2076, 712.001, 0.9875, 7.69263e-11, 3.07705e-06, 0.441631
 2079, 713.001, 0.9875, 8.09125e-11, 3.2365e-06, 0.441631
 2082, 714.001, 0.9875, 8.50966e-11, 3.40386e-06, 0.441631
 2085, 715.001, 0.9875, 8.94879e-11, 3.57952e-06, 0.441631
 2088, 716.001, 0.9875, 9.40963e-11, 3.76385e-06, 0.441631
 2091, 717.001, 0.9875, 9.89319e-11, 3.95728e-06, 0.441631
 2094, 718.001, 0.9875, 1.04006e-10, 4.16022e-06, 0.441631
 2097, 719.001, 0.9875, 1.09328e-10, 4.37313e-06, 0.441631
 2100, 720.001, 0.9875, 1.14912e-10, 4.59648e-06, 0.441631
 2103, 721.001, 0.9875, 1.20769e-10, 4.83075e-06, 0.441631
 2106, 722.001, 0.9875, 1.26911e-10, 5.07645e-06, 0.441631
 2109, 723.001, 0.9875, 1.33353e-10, 5.33412e-06, 0.441631
 2112, 724.001, 0.9875, 1.40108e-10, 5.60431e-06, 0.441631
 2115, 725.001, 0.9875, 1.4719e-10, 5.8876e-06, 0.441631
 2118, 726.001, 0.9875, 1.54615e-10, 6.1846e-06, 0.441631
 2121, 727.001, 0.9875, 1.62399e-10, 6.49594e-06, 0.441631
 2124, 728.001, 0.9875, 1.70557e-10, 6.82229e-06, 0.441631
 2127, 729.001, 0.9875, 1.79108e-10, 7.16434e-06, 0.441631
 2130, 730.001, 0.9875, 1.8807e-10, 7.5228e-06, 0.441631
 2133, 731.001, 0.9875, 1.97461e-10, 7.89842e-06, 0.441631
 2136, 732.001, 0.9875, 2.073e-10, 8.292e-06, 0.441631
 2139, 733.001, 0.9875, 2.17609e-10, 8.70435e-06, 0.441631
 2142, 734.001, 0.9875, 2.28408e-10, 9.13632e-06, 0.441631
 2145, 735.001, 0.9875, 2.3972e-10, 9.58881e-06, 0.441631
 2148, 736.001, 0.9875, 2.51569e-10, 1.00627e-05, 0.441631
 2151, 737.001, 0.9875, 2.63977e-10, 1.05591e-05, 0.441631
 2154, 738.001, 0.9875, 2.76972e-10, 1.10789e-05, 0.441631
 2157, 739.001, 0.9875, 2.90578e-10, 1.16231e-05, 0.441631
 2160, 740.001, 0.9875, 3.04824e-10, 1.2193e-05, 0.441631
 2163, 741.001, 0.9875, 3.19739e-10, 1.27896e-05, 0.441631
 2166, 742.001, 0.9875, 3.35351e-10, 1.34141e-05, 0.441631
 2169, 743.001, 0.9875, 3.51693e-10, 1.40677e-05, 0.441631
 2172, 744.001, 0.9875, 3.68797e-10, 1.47519e-05, 0.441631
 2175, 745.001, 0.9875, 3.86696e-10, 1.54679e-05, 0.441631
 2178, 746.001, 0.9875, 4.05427e-10, 1.62171e-05, 0.441631
 2181, 747.001, 0.9875, 4.25025e-10, 1.7001e-05, 0.441631
 2184, 748.001, 0.9875, 4.4553e-10, 1.78212e-05, 0.441631
 2187, 749.001, 0.9875, 4.6698e-10, 1.86792e-05, 0.441631
 2190, 750.001, 0.9875, 4.89419e-10, 1.95767e-05, 0.441631
 2193, 751.001, 0.9875, 5.12888e-10, 2.05155e-05, 0.441631
 2196, 752.001, 0.9875, 5.37434e-10, 2.14974e-05, 0.441631
 2199, 753.001, 0.9875, 5.63103e-10, 2.25241e-05, 0.441631
 2202, 754.001, 0.9875, 5.89945e-10, 2.35978e-05, 0.441631
 2205, 755.001, 0.9875, 6.1801e-10, 2.47204e-05, 0.441631
 2208, 756.001, 0.9875, 6.47352e-10, 2.58941e-05, 0.441631
 2211, 757.001, 0.9875, 6.78026e-10, 2.71211e-05, 0.441631
 2214, 758.001, 0.9875, 7.1009e-10, 2.84036e-05, 0.441631
 2217, 759.001, 0.9875, 7.43603e-10, 2.97441e-05, 0.441631
 2220, 760.001, 0.9875, 7.78629e-10, 3.11452e-05, 0.441631
 2223, 761.001, 0.9875, 8.15232e-10, 3.26093e-05, 0.441631
 2226, 762.001, 0.9875, 8.53479e-10, 3.41392e-05, 0.441631
 2229, 763.001, 0.9875, 8.93442e-10, 3.57377e-05, 0.441631
 2232, 764.001, 0.9875, 9.35194e-10, 3.74078e-05, 0.441631
 2235, 765.001, 0.9875, 9.78811e-10, 3.91524e-05, 0.441631
 2238, 766.001, 0.9875, 1.02437e-09, 4.09749e-05, 0.441631
 2241, 767.001, 0.9875, 1.07196e-09, 4.28784e-05, 0.441631
 2244, 768.001, 0.9875, 1.12166e-09, 4.48664e-05, 0.441631
 2247, 769.001, 0.9875, 1.17356e-09, 4.69426e-05, 0.441631
 2250, 770.001, 0.9875, 1.22776e-09, 4.91105e-05, 0.441631
 2253, 771.001, 0.9875, 1.28435e-09, 5.13741e-05, 0.441631
 2256, 772.001, 0.9875, 1.34344e-09, 5.37374e-05, 0.441631
 2259, 773.001, 0.9875, 1.40512e-09, 5.62047e-05, 0.441631
 2262, 774.001, 0.9875, 1.4695e-09, 5.87801e-05, 0.441631
 2265, 775.001, 0.9875, 1.53671e-09, 6.14683e-05, 0.441631
 2268, 776.001, 0.9875, 1.60685e-09, 6.42739e-05, 0.441631
 2271, 777.001, 0.9875, 1.68005e-09, 6.7202e-05, 0.441631
 2274, 778.001, 0.9875, 1.75643e-09, 7.02574e-05, 0.441631
 2277, 779.001, 0.9875, 1.83614e-09, 7.34455e-05, 0.441631
 2280, 780.001, 0.9875, 1.9193e-09, 7.67719e-05, 0.441631
 2283, 781.001, 0.9875, 2.00605e-09, 8.02421e-05, 0.441631
 2286, 782.001, 0.9875, 2.09656e-09, 8.38622e-05, 0.441631
 2289, 783.001, 0.9875, 2.19096e-09, 8.76383e-05, 0.441631
 2292, 784.001, 0.9875, 2.28942e-09, 9.15768e-05, 0.441631
 2295, 785.001, 0.9875, 2.39211e-09, 9.56844e-05, 0.441631
 2298, 786.001, 0.9875, 2.4992e-09, 9.99678e-05, 0.441631
 2301, 787.001, 0.9875, 2.61086e-09, 0.000104434, 0.441632
 2304, 788.001, 0.9875, 2.72729e-09, 0.000109092, 0.441631
 2307, 789.001, 0.9875, 2.84868e-09, 0.000113947, 0.441632
 2310, 790.001, 0.9875, 2.97523e-09, 0.000119009, 0.441632
 2313, 791.001, 0.9875, 3.10714e-09, 0.000124286, 0.441632
 2316, 792.001, 0.9875, 3.24464e-09, 0.000129786, 0.441632
 2319, 793.001, 0.9875, 3.38795e-09, 0.000135518, 0.441632
 2322, 794.001, 0.9875, 3.5373e-09, 0.000141492, 0.441632
 2325, 795.001, 0.9875, 3.69294e-09, 0.000147718, 0.441632
 2328, 796.001, 0.9875, 3.85511e-09, 0.000154205, 0.441632
 2331, 797.001, 0.9875, 4.02409e-09, 0.000160964, 0.441632
 2334, 798.001, 0.9875, 4.20013e-09, 0.000168005, 0.441632
 2337, 799.001, 0.9875, 4.38353e-09, 0.000175341, 0.441632
 2340, 800.001, 0.9875, 4.57456e-09, 0.000182983, 0.441632