File: examples/Birch_TGA_Example/Best/birch_tga_1step_5_tga.csv
s,C,g/g,1/s,W/g,W/g
Time,Temp,Mass,MLR,MCC,DSC
 12, 21.0004, 0.965, 8.71755e-14, 3.48702e-09, 0.10789
 24, 22.0004, 0.965, 1.01839e-13, 4.07355e-09, 0.10789
 36, 23.0004, 0.965, 1.18844e-13, 4.75375e-09, 0.10789
 48, 24.0004, 0.965, 1.38544e-13, 5.54176e-09, 0.10789
 60, 25.0004, 0.965, 1.61344e-13, 6.45376e-09, 0.10789
 72, 26.0004, 0.965, 1.87705e-13, 7.50818e-09, 0.10789
 84, 27.0004, 0.965, 2.18152e-13, 8.72608e-09, 0.10789
 96, 28.0004, 0.965, 2.53285e-13, 1.01314e-08, 0.10789
 108, 29.0004, 0.965, 2.93786e-13, 1.17515e-08, 0.10789
 120, 30.0004, 0.965, 3.4043e-13, 1.36172e-08, 0.10789
 132, 31.0004, 0.965, 3.94098e-13, 1.57639e-08, 0.10789
 144, 32.0004, 0.965, 4.55788e-13, 1.82315e-08, 0.10789
 156, 33.0004, 0.965, 5.26635e-13, 2.10654e-08, 0.10789
 168, 34.0004, 0.965, 6.07921e-13, 2.43168e-08, 0.10789
 180, 35.0004, 0.965, 7.01101e-13, 2.8044e-08, 0.10789
 192, 36.0004, 0.965, 8.07817e-13, 3.23127e-08, 0.10789
 204, 37.0004, 0.965, 9.29927e-13, 3.71971e-08, 0.10789
 216, 38.0004, 0.965, 1.06953e-12, 4.27811e-08, 0.10789
 228, 39.0004, 0.965, 1.22898e-12, 4.91593e-08, 0.10789
 240, 40.0004, 0.965, 1.41096e-12, 5.64383e-08, 0.10789
 252, 41.0004, 0.965, 1.61845e-12, 6.47381e-08, 0.10789
 264, 42.0004, 0.965, 1.85485e-12, 7.41939e-08, 0.10789
 276, 43.0004, 0.965, 2.12394e-12, 8.49575e-08, 0.10789
 288, 44.0004, 0.965, 2.42999e-12, 9.71996e-08, 0.10789
 300, 45.0004, 0.965, 2.77779e-12, 1.11112e-07, 0.10789
 312, 46.0004, 0.965, 3.17271e-12, 1.26909e-07, 0.10789
 324, 47.0004, 0.965, 3.62077e-12, 1.44831e-07, 0.10789
 336, 48.0004, 0.965, 4.12871e-12, 1.65148e-07, 0.10789
 348, 49.0004, 0.965, 4.70407e-12, 1.88163e-07, 0.10789
 360, 50.0004, 0.965, 5.35528e-12, 2.14211e-07, 0.10789
 372, 51.0004, 0.965, 6.09177e-12, 2.43671e-07, 0.10789
 384, 52.0004, 0.965, 6.92405e-12, 2.76962e-07, 0.10789
 396, 53.0004, 0.965, 7.86387e-12, 3.14555e-07, 0.10789
 408, 54.0004, 0.965, 8.9243e-12, 3.56972e-07, 0.10789
 420, 55.0004, 0.965, 1.01199e-11, 4.04797e-07, 0.10789
 432, 56.0004, 0.965, 1.1467e-11, 4.58679e-07, 0.10789
 444, 57.0004, 0.965, 1.29835e-11, 5.19339e-07, 0.10789
 456, 58.0004, 0.965, 1.46895e-11, 5.87581e-07, 0.10789
 468, 59.0004, 0.965, 1.66074e-11, 6.64296e-07, 0.10789
 480, 60.0004, 0.965, 1.87619e-11, 7.50474e-07, 0.10789
 492, 61.0004, 0.965, 2.11803e-11, 8.47213e-07, 0.10789
 504, 62.0004, 0.965, 2.38933e-11, 9.5573e-07, 0.10789
 516, 63.0004, 0.965, 2.69344e-11, 1.07737e-06, 0.10789
 528, 64.0004, 0.965, 3.0341e-11, 1.21364e-06, 0.10789
 540, 65.0004, 0.965, 3.41543e-11, 1.36617e-06, 0.10789
 552, 66.0004, 0.965, 3.84202e-11, 1.53681e-06, 0.10789
 564, 67.0004, 0.965, 4.31889e-11, 1.72756e-06, 0.10789
 576, 68.0004, 0.965, 4.85163e-11, 1.94065e-06, 0.10789
 588, 69.0004, 0.965, 5.44637e-11, 2.17855e-06, 0.10789
 600, 70.0004, 0.965, 6.1099e-11, 2.44396e-06, 0.10789
 612, 71.0004, 0.965, 6.84969e-11, 2.73988e-06, 0.10789
 624, 72.0004, 0.965, 7.67397e-11, 3.06959e-06, 0.10789
 636, 73.0004, 0.965, 8.59181e-11, 3.43672e-06, 0.10789
 648, 74.0004, 0.965, 9.61316e-11, 3.84526e-06, 0.10789
 660, 75.0004, 0.965, 1.0749e-10, 4.29959e-06, 0.10789
 672, 76.0004, 0.965, 1.20113e-10, 4.80453e-06, 0.10789
 684, 77.0004, 0.965, 1.34134e-10, 5.36536e-06, 0.10789
 696, 78.0004, 0.965, 1.49697e-10, 5.98789e-06, 0.10789
 708, 79.0004, 0.965, 1.66962e-10, 6.67848e-06, 0.10789
 720, 80.0004, 0.965, 1.86103e-10, 7.44412e-06, 0.10789
 732, 81.0004, 0.965, 2.07311e-10, 8.29245e-06, 0.10789
 744, 82.0004, 0.965, 2.30796e-10, 9.23184e-06, 0.10789
 756, 83.0004, 0.965, 2.56787e-10, 1.02715e-05, 0.10789
 768, 84.0004, 0.965, 2.85533e-10, 1.14213e-05, 0.10789
 780, 85.0004, 0.965, 3.1731e-10, 1.26924e-05, 0.10789
 792, 86.0004, 0.965, 3.52416e-10, 1.40966e-05, 0.10789
 804, 87.0004, 0.965, 3.91177e-10, 1.56471e-05, 0.10789
 816, 88.0004, 0.965, 4.33952e-10, 1.73581e-05, 0.107891
 828, 89.0004, 0.965, 4.81128e-10, 1.92451e-05, 0.107891
 840, 90.0004, 0.965, 5.33129e-10, 2.13252e-05, 0.107891
 852, 91.0004, 0.965, 5.90418e-10, 2.36167e-05, 0.107891
 864, 92.0004, 0.965, 6.53497e-10, 2.61399e-05, 0.107891
 876, 93.0004, 0.965, 7.22915e-10, 2.89166e-05, 0.107891
 888, 94.0004, 0.965, 7.99268e-10, 3.19707e-05, 0.107891
 900, 95.0004, 0.965, 8.83202e-10, 3.53281e-05, 0.107891
 912, 96.0004, 0.965, 9.75423e-10, 3.90169e-05, 0.107891
 924, 97.0004, 0.965, 1.0767e-09, 4.30678e-05, 0.107891
 936, 98.0004, 0.965, 1.18785e-09, 4.7514e-05, 0.107891
 948, 99.0004, 0.965, 1.30979e-09, 5.23915e-05, 0.107891
 960, 100, 0.965, 1.44349e-09, 5.77395e-05, 0.107891
 972, 101, 0.965, 1.59001e-09, 6.36003e-05, 0.107891
 984, 102, 0.965, 1.7505e-09, 7.00199e-05, 0.107891
 996, 103, 0.965, 1.9262e-09, 7.70481e-05, 0.107891
 1008, 104, 0.965, 2.11847e-09, 8.47387e-05, 0.107891
 1020, 105, 0.965, 2.32875e-09, 9.31501e-05, 0.107891
 1032, 106, 0.965, 2.55863e-09, 0.000102345, 0.107891
 1044, 107, 0.965, 2.80982e-09, 0.000112393, 0.107891
 1056, 108, 0.965, 3.08414e-09, 0.000123366, 0.107891
 1068, 109, 0.965, 3.3836e-09, 0.000135344, 0.107891
 1080, 110, 0.965, 3.71033e-09, 0.000148413, 0.107891
 1092, 111, 0.965, 4.06667e-09, 0.000162667, 0.107891
 1104, 112, 0.964999, 4.45511e-09, 0.000178204, 0.107891
 1116, 113, 0.964999, 4.87834e-09, 0.000195134, 0.107892
 1128, 114, 0.964999, 5.33928e-09, 0.000213571, 0.107892
 1140, 115, 0.964999, 5.84105e-09, 0.000233642, 0.107892
 1152, 116, 0.964999, 6.38703e-09, 0.000255481, 0.107892
 1164, 117, 0.964999, 6.98084e-09, 0.000279233, 0.107892
 1176, 118, 0.964999, 7.62639e-09, 0.000305056, 0.107892
 1188, 119, 0.964999, 8.32788e-09, 0.000333115, 0.107892
 1200, 120, 0.964999, 9.08983e-09, 0.000363593, 0.107893
 1212, 121, 0.964999, 9.91708e-09, 0.000396683, 0.107893
 1224, 122, 0.964999, 1.08149e-08, 0.000432594, 0.107893
 1236, 123, 0.964998, 1.17887e-08, 0.00047155, 0.107893
 1248, 124, 0.964998, 1.28447e-08, 0.00051379, 0.107893
 1260, 125, 0.964998, 1.39893e-08, 0.000559573, 0.107894
 1272, 126, 0.964998, 1.52294e-08, 0.000609175, 0.107894
 1284, 127, 0.964998, 1.65723e-08, 0.000662892, 0.107894
 1296, 128, 0.964998, 1.8026e-08, 0.000721042, 0.107895
 1308, 129, 0.964997, 1.95991e-08, 0.000783965, 0.107895
 1320, 130, 0.964997, 2.13006e-08, 0.000852026, 0.107896
 1332, 131, 0.964997, 2.31403e-08, 0.000925614, 0.107896
 1344, 132, 0.964997, 2.51287e-08, 0.00100515, 0.107896
 1356, 133, 0.964996, 2.72767e-08, 0.00109107, 0.107897
 1368, 134, 0.964996, 2.95965e-08, 0.00118386, 0.107898
 1380, 135, 0.964996, 3.21007e-08, 0.00128403, 0.107898
 1392, 136, 0.964995, 3.4803e-08, 0.00139212, 0.107899
 1404, 137, 0.964995, 3.77179e-08, 0.00150872, 0.107899
 1416, 138, 0.964994, 4.0861e-08, 0.00163444, 0.1079
 1428, 139, 0.964994, 4.42487e-08, 0.00176995, 0.107901
 1440, 140, 0.964993, 4.78989e-08, 0.00191595, 0.107902
 1452, 141, 0.964993, 5.18303e-08, 0.00207321, 0.107903
 1464, 142, 0.964992, 5.60631e-08, 0.00224252, 0.107904
 1476, 143, 0.964991, 6.06187e-08, 0.00242475, 0.107905
 1488, 144, 0.96499, 6.55199e-08, 0.0026208, 0.107906
 1500, 145, 0.96499, 7.0791e-08, 0.00283164, 0.107907
 1512, 146, 0.964989, 7.6458e-08, 0.00305832, 0.107909
 1524, 147, 0.964988, 8.25484e-08, 0.00330194, 0.10791
 1536, 148, 0.964987, 8.90915e-08, 0.00356366, 0.107912
 1548, 149, 0.964986, 9.61184e-08, 0.00384474, 0.107913
 1560, 150, 0.964984, 1.03662e-07, 0.0041465, 0.107915
 1572, 151, 0.964983, 1.11759e-07, 0.00447034, 0.107917
 1584, 152, 0.964982, 1.20445e-07, 0.00481778, 0.107919
 1596, 153, 0.96498, 1.2976e-07, 0.0051904, 0.107921
 1608, 154, 0.964979, 1.39747e-07, 0.00558988, 0.107924
 1620, 155, 0.964977, 1.50451e-07, 0.00601802, 0.107926
 1632, 156, 0.964975, 1.61918e-07, 0.00647673, 0.107929
 1644, 157, 0.964973, 1.74201e-07, 0.00696802, 0.107932
 1656, 158, 0.964971, 1.87351e-07, 0.00749403, 0.107935
 1668, 159, 0.964969, 2.01426e-07, 0.00805704, 0.107938
 1680, 160, 0.964966, 2.16486e-07, 0.00865944, 0.107942
 1692, 161, 0.964963, 2.32595e-07, 0.00930379, 0.107946
 1704, 162, 0.96496, 2.4982e-07, 0.00999279, 0.10795
 1716, 163, 0.964957, 2.68232e-07, 0.0107293, 0.107954
 1728, 164, 0.964954, 2.87908e-07, 0.0115163, 0.107959
 1740, 165, 0.96495, 3.08927e-07, 0.0123571, 0.107964
 1752, 166, 0.964947, 3.31375e-07, 0.013255, 0.107969
 1764, 167, 0.964942, 3.5534e-07, 0.0142136, 0.107975
 1776, 168, 0.964938, 3.80917e-07, 0.0152367, 0.107981
 1788, 169, 0.964933, 4.08207e-07, 0.0163283, 0.107988
 1800, 170, 0.964928, 4.37315e-07, 0.0174926, 0.107994
 1812, 171, 0.964923, 4.68354e-07, 0.0187341, 0.108002
 1824, 172, 0.964917, 5.0144e-07, 0.0200576, 0.10801
 1836, 173, 0.964911, 5.367e-07, 0.021468, 0.108018
 1848, 174, 0.964904, 5.74263e-07, 0.0229705, 0.108027
 1860, 175, 0.964897, 6.14271e-07, 0.0245708, 0.108036
 1872, 176, 0.964889, 6.56867e-07, 0.0262747, 0.108046
 1884, 177, 0.964881, 7.02208e-07, 0.0280883, 0.108057
 1896, 178, 0.964872, 7.50456e-07, 0.0300183, 0.108068
 1908, 179, 0.964863, 8.01783e-07, 0.0320713, 0.10808
 1920, 180, 0.964853, 8.5637e-07, 0.0342548, 0.108093
 1932, 181, 0.964843, 9.14406e-07, 0.0365763, 0.108107
 1944, 182, 0.964831, 9.76094e-07, 0.0390438, 0.108122
 1956, 183, 0.964819, 1.04164e-06, 0.0416658, 0.108137
 1968, 184, 0.964806, 1.11128e-06, 0.0444512, 0.108153
 1980, 185, 0.964792, 1.18523e-06, 0.0474093, 0.108171
 1992, 186, 0.964778, 1.26375e-06, 0.0505501, 0.108189
 2004, 187, 0.964762, 1.3471e-06, 0.0538838, 0.108209
 2016, 188, 0.964745, 1.43554e-06, 0.0574214, 0.10823
 2028, 189, 0.964728, 1.52936e-06, 0.0611744, 0.108252
 2040, 190, 0.964709, 1.62887e-06, 0.0651547, 0.108275
 2052, 191, 0.964688, 1.73438e-06, 0.0693751, 0.1083
 2064, 192, 0.964667, 1.84622e-06, 0.0738487, 0.108326
 2076, 193, 0.964644, 1.96474e-06, 0.0785896, 0.108354
 2088, 194, 0.96462, 2.09031e-06, 0.0836125, 0.108383
 2100, 195, 0.964594, 2.22332e-06, 0.0889326, 0.108414
 2112, 196, 0.964566, 2.36415e-06, 0.0945662, 0.108448
 2124, 197, 0.964537, 2.51325e-06, 0.10053, 0.108482
 2136, 198, 0.964506, 2.67106e-06, 0.106842, 0.108519
 2148, 199, 0.964473, 2.83803e-06, 0.113521, 0.108558
 2160, 200, 0.964438, 3.01465e-06, 0.120586, 0.1086
 2172, 201, 0.964401, 3.20145e-06, 0.128058, 0.108643
 2184, 202, 0.964361, 3.39895e-06, 0.135958, 0.10869
 2196, 203, 0.964319, 3.60771e-06, 0.144309, 0.108738
 2208, 204, 0.964274, 3.82833e-06, 0.153133, 0.10879
 2220, 205, 0.964227, 4.06142e-06, 0.162457, 0.108844
 2232, 206, 0.964177, 4.30761e-06, 0.172305, 0.108902
 2244, 207, 0.964124, 4.5676e-06, 0.182704, 0.108962
 2256, 208, 0.964067, 4.84207e-06, 0.193683, 0.109026
 2268, 209, 0.964007, 5.13178e-06, 0.205271, 0.109094
 2280, 210, 0.963944, 5.43748e-06, 0.217499, 0.109165
 2292, 211, 0.963877, 5.75999e-06, 0.2304, 0.10924
 2304, 212, 0.963806, 6.10015e-06, 0.244006, 0.109319
 2316, 213, 0.96373, 6.45883e-06, 0.258353, 0.109402
 2328, 214, 0.963651, 6.83696e-06, 0.273479, 0.10949
 2340, 215, 0.963566, 7.2355e-06, 0.28942, 0.109583
 2352, 216, 0.963477, 7.65545e-06, 0.306218, 0.109681
 2364, 217, 0.963382, 8.09785e-06, 0.323914, 0.109783
 2376, 218, 0.963282, 8.5638e-06, 0.342552, 0.109891
 2388, 219, 0.963177, 9.05443e-06, 0.362177, 0.110005
 2400, 220, 0.963065, 9.57093e-06, 0.382837, 0.110125
 2412, 221, 0.962947, 1.01145e-05, 0.404582, 0.110251
 2424, 222, 0.962822, 1.06865e-05, 0.427462, 0.110383
 2436, 223, 0.96269, 1.12883e-05, 0.451532, 0.110523
 2448, 224, 0.962551, 1.19212e-05, 0.476847, 0.110669
 2460, 225, 0.962404, 1.25867e-05, 0.503467, 0.110823
 2472, 226, 0.962249, 1.32863e-05, 0.531451, 0.110985
 2484, 227, 0.962085, 1.40216e-05, 0.560862, 0.111155
 2496, 228, 0.961912, 1.47942e-05, 0.591767, 0.111333
 2508, 229, 0.96173, 1.56059e-05, 0.624234, 0.111521
 2520, 230, 0.961537, 1.64583e-05, 0.658334, 0.111717
 2532, 231, 0.961335, 1.73535e-05, 0.69414, 0.111924
 2544, 232, 0.961121, 1.82932e-05, 0.73173, 0.11214
 2556, 233, 0.960895, 1.92796e-05, 0.771183, 0.112368
 2568, 234, 0.960658, 2.03145e-05, 0.812582, 0.112606
 2580, 235, 0.960408, 2.14003e-05, 0.856012, 0.112856
 2592, 236, 0.960144, 2.25391e-05, 0.901564, 0.113118
 2604, 237, 0.959866, 2.37332e-05, 0.949328, 0.113393
 2616, 238, 0.959574, 2.49851e-05, 0.999402, 0.11368
 2628, 239, 0.959267, 2.62971e-05, 1.05188, 0.113982
 2640, 240, 0.958943, 2.7672e-05, 1.10688, 0.114298
 2652, 241, 0.958602, 2.91123e-05, 1.16449, 0.114628
 2664, 242, 0.958244, 3.06208e-05, 1.22483, 0.114974
 2676, 243, 0.957867, 3.22004e-05, 1.28802, 0.115336
 2688, 244, 0.957471, 3.3854e-05, 1.35416, 0.115715
 2700, 245, 0.957054, 3.55847e-05, 1.42339, 0.116112
 2712, 246, 0.956616, 3.73956e-05, 1.49582, 0.116526
 2724, 247, 0.956156, 3.929e-05, 1.5716, 0.116959
 2736, 248, 0.955673, 4.12713e-05, 1.65085, 0.117413
 2748, 249, 0.955165, 4.33429e-05, 1.73371, 0.117886
 2760, 250, 0.954632, 4.55084e-05, 1.82033, 0.118381
 2772, 251, 0.954073, 4.77714e-05, 1.91086, 0.118897
 2784, 252, 0.953485, 5.01359e-05, 2.00544, 0.119437
 2796, 253, 0.952869, 5.26057e-05, 2.10423, 0.12
 2808, 254, 0.952222, 5.51848e-05, 2.20739, 0.120587
 2820, 255, 0.951544, 5.78774e-05, 2.3151, 0.1212
 2832, 256, 0.950833, 6.06878e-05, 2.42751, 0.12184
 2844, 257, 0.950087, 6.36202e-05, 2.54481, 0.122507
 2856, 258, 0.949305, 6.66792e-05, 2.66717, 0.123202
 2868, 259, 0.948486, 6.98694e-05, 2.79478, 0.123927
 2880, 260, 0.947628, 7.31954e-05, 2.92782, 0.124682
 2892, 261, 0.946729, 7.66622e-05, 3.06649, 0.125469
 2904, 262, 0.945787, 8.02745e-05, 3.21098, 0.126288
 2916, 263, 0.944802, 8.40375e-05, 3.3615, 0.12714
 2928, 264, 0.94377, 8.79563e-05, 3.51825, 0.128028
 2940, 265, 0.94269, 9.20361e-05, 3.68144, 0.128951
 2952, 266, 0.94156, 9.62823e-05, 3.85129, 0.129911
 2964, 267, 0.940379, 0.0001007, 4.02801, 0.130909
 2976, 268, 0.939143, 0.000105295, 4.21182, 0.131946
 2988, 269, 0.937851, 0.000110073, 4.40294, 0.133024
 3000, 270, 0.9365, 0.00011504, 4.6016, 0.134144
 3012, 271, 0.935089, 0.000120201, 4.80804, 0.135306
 3024, 272, 0.933615, 0.000125562, 5.02247, 0.136513
 3036, 273, 0.932075, 0.000131129, 5.24514, 0.137765
 3048, 274, 0.930467, 0.000136907, 5.47628, 0.139063
 3060, 275, 0.928788, 0.000142903, 5.71612, 0.140409
 3072, 276, 0.927036, 0.000149123, 5.96491, 0.141804
 3084, 277, 0.925208, 0.000155572, 6.22286, 0.143249
 3096, 278, 0.923301, 0.000162256, 6.49023, 0.144746
 3108, 279, 0.921313, 0.000169181, 6.76725, 0.146295
 3120, 280, 0.91924, 0.000176353, 7.05414, 0.147897
 3132, 281, 0.917079, 0.000183778, 7.35113, 0.149555
 3144, 282, 0.914828, 0.000191461, 7.65845, 0.151268
 3156, 283, 0.912483, 0.000199408, 7.97632, 0.153038
 3168, 284, 0.910041, 0.000207624, 8.30495, 0.154866
 3180, 285, 0.907499, 0.000216114, 8.64454, 0.156753
 3192, 286, 0.904853, 0.000224882, 8.9953, 0.158699
 3204, 287, 0.9021, 0.000233935, 9.35741, 0.160706
 3216, 288, 0.899237, 0.000243276, 9.73105, 0.162775
 3228, 289, 0.896261, 0.00025291, 10.1164, 0.164905
 3240, 290, 0.893166, 0.000262839, 10.5136, 0.167098
 3252, 291, 0.889951, 0.000273068, 10.9227, 0.169354
 3264, 292, 0.886611, 0.0002836, 11.344, 0.171673
 3276, 293, 0.883143, 0.000294437, 11.7775, 0.174055
 3288, 294, 0.879544, 0.00030558, 12.2232, 0.176502
 3300, 295, 0.875808, 0.000317033, 12.6813, 0.179011
 3312, 296, 0.871933, 0.000328794, 13.1518, 0.181585
 3324, 297, 0.867916, 0.000340865, 13.6346, 0.184221
 3336, 298, 0.863751, 0.000353244, 14.1298, 0.186919
 3348, 299, 0.859437, 0.000365931, 14.6372, 0.189679
 3360, 300, 0.854968, 0.000378923, 15.1569, 0.1925
 3372, 301, 0.850341, 0.000392216, 15.6886, 0.19538
 3384, 302, 0.845553, 0.000405807, 16.2323, 0.198317
 3396, 303, 0.8406, 0.000419691, 16.7876, 0.201311
 3408, 304, 0.835479, 0.00043386, 17.3544, 0.204359
 3420, 305, 0.830186, 0.000448308, 17.9323, 0.207458
 3432, 306, 0.824719, 0.000463026, 18.521, 0.210607
 3444, 307, 0.819073, 0.000478003, 19.1201, 0.213801
 3456, 308, 0.813245, 0.000493228, 19.7291, 0.217038
 3468, 309, 0.807234, 0.000508688, 20.3475, 0.220315
 3480, 310, 0.801036, 0.000524368, 20.9747, 0.223626
 3492, 311, 0.794648, 0.000540252, 21.6101, 0.226968
 3504, 312, 0.788069, 0.000556323, 22.2529, 0.230336
 3516, 313, 0.781296, 0.00057256, 22.9024, 0.233724
 3528, 314, 0.774327, 0.000588942, 23.5577, 0.237127
 3540, 315, 0.76716, 0.000605446, 24.2178, 0.240538
 3552, 316, 0.759796, 0.000622047, 24.8819, 0.243951
 3564, 317, 0.752231, 0.000638716, 25.5487, 0.247359
 3576, 318, 0.744466, 0.000655426, 26.217, 0.250755
 3588, 319, 0.736501, 0.000672145, 26.8858, 0.254129
 3600, 320, 0.728334, 0.000688838, 27.5535, 0.257473
 3612, 321, 0.719968, 0.000705472, 28.2189, 0.26078
 3624, 322, 0.711403, 0.000722008, 28.8803, 0.264038
 3636, 323, 0.702641, 0.000738406, 29.5363, 0.267238
 3648, 324, 0.693682, 0.000754626, 30.185, 0.27037
 3660, 325, 0.68453, 0.000770622, 30.8249, 0.273422
 3672, 326, 0.675188, 0.00078635, 31.454, 0.276383
 3684, 327, 0.665659, 0.000801762, 32.0705, 0.279241
 3696, 328, 0.655947, 0.000816808, 32.6723, 0.281985
 3708, 329, 0.646057, 0.000831437, 33.2575, 0.284601
 3720, 330, 0.635994, 0.000845597, 33.8239, 0.287076
 3732, 331, 0.625765, 0.000859233, 34.3693, 0.289398
 3744, 332, 0.615375, 0.000872291, 34.8916, 0.291553
 3756, 333, 0.604832, 0.000884714, 35.3886, 0.293527
 3768, 334, 0.594145, 0.000896444, 35.8578, 0.295307
 3780, 335, 0.583321, 0.000907425, 36.297, 0.296879
 3792, 336, 0.572369, 0.000917598, 36.7039, 0.298229
 3804, 337, 0.561301, 0.000926906, 37.0762, 0.299343
 3816, 338, 0.550127, 0.000935291, 37.4117, 0.300207
 3828, 339, 0.538858, 0.000942697, 37.7079, 0.30081
 3840, 340, 0.527507, 0.000949067, 37.9627, 0.301137
 3852, 341, 0.516085, 0.000954349, 38.174, 0.301177
 3864, 342, 0.504607, 0.00095849, 38.3396, 0.300917
 3876, 343, 0.493086, 0.00096144, 38.4576, 0.300347
 3888, 344, 0.481537, 0.000963153, 38.5261, 0.299456
 3900, 345, 0.469975, 0.000963586, 38.5434, 0.298234
 3912, 346, 0.458416, 0.000962699, 38.508, 0.296674
 3924, 347, 0.446876, 0.000960457, 38.4183, 0.294769
 3936, 348, 0.435371, 0.00095683, 38.2732, 0.292512
 3948, 349, 0.423918, 0.000951792, 38.0717, 0.289898
 3960, 350, 0.412534, 0.000945325, 37.813, 0.286926
 3972, 351, 0.401236, 0.000937417, 37.4967, 0.283594
 3984, 352, 0.390042, 0.000928059, 37.1224, 0.279901
 3996, 353, 0.378968, 0.000917254, 36.6902, 0.275851
 4008, 354, 0.368033, 0.00090501, 36.2004, 0.271447
 4020, 355, 0.357254, 0.000891342, 35.6537, 0.266695
 4032, 356, 0.346647, 0.000876275, 35.051, 0.261605
 4044, 357, 0.336229, 0.000859841, 34.3936, 0.256184
 4056, 358, 0.326016, 0.00084208, 33.6832, 0.250447
 4068, 359, 0.316024, 0.000823041, 32.9217, 0.244407
 4080, 360, 0.306268, 0.000802782, 32.1113, 0.238081
 4092, 361, 0.296762, 0.000781367, 31.2547, 0.231487
 4104, 362, 0.28752, 0.00075887, 30.3548, 0.224645
 4116, 363, 0.278554, 0.000735372, 29.4149, 0.217578
 4128, 364, 0.269875, 0.000710962, 28.4385, 0.21031
 4140, 365, 0.261494, 0.000685733, 27.4293, 0.202866
 4152, 366, 0.253421, 0.000659788, 26.3915, 0.195273
 4164, 367, 0.245662, 0.000633232, 25.3293, 0.18756
 4176, 368, 0.238225, 0.000606178, 24.2471, 0.179755
 4188, 369, 0.231116, 0.000578739, 23.1496, 0.17189
 4200, 370, 0.224337, 0.000551033, 22.0413, 0.163994
 4212, 371, 0.217892, 0.000523181, 20.9272, 0.156098
 4224, 372, 0.211781, 0.0004953, 19.812, 0.148234
 4236, 373, 0.206004, 0.000467513, 18.7005, 0.140431
 4248, 374, 0.20056, 0.000439935, 17.5974, 0.132721
 4260, 375, 0.195445, 0.000412683, 16.5073, 0.125133
 4272, 376, 0.190654, 0.000385867, 15.4347, 0.117694
 4284, 377, 0.186182, 0.000359595, 14.3838, 0.11043
 4296, 378, 0.182022, 0.000333966, 13.3586, 0.103368
 4308, 379, 0.178164, 0.000309073, 12.3629, 0.0965303
 4320, 380, 0.174601, 0.000285002, 11.4001, 0.089937
 4332, 381, 0.171321, 0.00026183, 10.4732, 0.0836073
 4344, 382, 0.168313, 0.000239623, 9.5849, 0.0775567
 4356, 383, 0.165566, 0.000218438, 8.73752, 0.0717987
 4368, 384, 0.163067, 0.000198323, 7.93291, 0.0663439
 4380, 385, 0.160802, 0.000179313, 7.17252, 0.0612
 4392, 386, 0.158759, 0.000161434, 6.45737, 0.0563721
 4404, 387, 0.156923, 0.000144702, 5.78806, 0.0518624
 4416, 388, 0.155282, 0.000129119, 5.16477, 0.0476708
 4428, 389, 0.15382, 0.000114682, 4.58728, 0.0437938
 4440, 390, 0.152525, 0.000101375, 4.055, 0.0402263
 4452, 391, 0.151383, 8.91743e-05, 3.56697, 0.0369607
 4464, 392, 0.15038, 7.80485e-05, 3.12194, 0.0339873
 4476, 393, 0.149505, 6.79588e-05, 2.71835, 0.0312947
 4488, 394, 0.148746, 5.88602e-05, 2.35441, 0.0288698
 4500, 395, 0.148089, 5.07025e-05, 2.0281, 0.0266989
 4512, 396, 0.147525, 4.34316e-05, 1.73726, 0.0247662
 4524, 397, 0.147043, 3.699e-05, 1.4796, 0.0230559
 4536, 398, 0.146634, 3.13182e-05, 1.25273, 0.0215519
 4548, 399, 0.146289, 2.63558e-05, 1.05423, 0.0202373
 4560, 400, 0.145999, 2.2042e-05, 0.881678, 0.0190958
 4572, 401, 0.145758, 1.83167e-05, 0.732667, 0.0181111
 4584, 402, 0.145558, 1.51214e-05, 0.604855, 0.0172673
 4596, 403, 0.145393, 1.23996e-05, 0.495985, 0.0165492
 4608, 404, 0.145258, 1.00977e-05, 0.403906, 0.0159423
 4620, 405, 0.145149, 8.16484e-06, 0.326594, 0.0154333
 4632, 406, 0.145061, 6.55403e-06, 0.262161, 0.0150093
 4644, 407, 0.144991, 5.22179e-06, 0.208872, 0.0146591
 4656, 408, 0.144935, 4.12853e-06, 0.165141, 0.0143718
 4668, 409, 0.144891, 3.23853e-06, 0.129541, 0.0141382
 4680, 410, 0.144856, 2.51993e-06, 0.100797, 0.0139496
 4692, 411, 0.14483, 1.94458e-06, 0.0777834, 0.0137989
 4704, 412, 0.144809, 1.48788e-06, 0.0595151, 0.0136791
 4716, 413, 0.144794, 1.12853e-06, 0.0451413, 0.013585
 4728, 414, 0.144782, 8.48342e-07, 0.0339337, 0.0135116
 4740, 415, 0.144773, 6.31882e-07, 0.0252753, 0.013455
 4752, 416, 0.144767, 4.66237e-07, 0.0186495, 0.0134118
 4764, 417, 0.144762, 3.40705e-07, 0.0136282, 0.0133789
 4776, 418, 0.144758, 2.46516e-07, 0.00986064, 0.0133542
 4788, 419, 0.144756, 1.76561e-07, 0.00706245, 0.0133361
 4800, 420, 0.144754, 1.25146e-07, 0.00500585, 0.0133228
 4812, 421, 0.144753, 8.77601e-08, 0.0035104, 0.0133129
 4824, 422, 0.144752, 6.08718e-08, 0.00243487, 0.0133059
 4836, 423, 0.144751, 4.17499e-08, 0.00167, 0.013301
 4848, 424, 0.144751, 2.83068e-08, 0.00113227, 0.0132975
 4860, 425, 0.144751, 1.8967e-08, 0.000758682, 0.013295
 4872, 426, 0.14475, 1.2556e-08, 0.00050224, 0.0132934
 4884, 427, 0.14475, 8.20949e-09, 0.00032838, 0.0132923
 4896, 428, 0.14475, 5.2998e-09, 0.000211992, 0.0132913
 4908, 429, 0.14475, 3.37711e-09, 0.000135084, 0.0132909
 4920, 430, 0.14475, 2.12341e-09, 8.49363e-05, 0.0132907
 4932, 431, 0.14475, 1.31699e-09, 5.26794e-05, 0.0132904
 4944, 432, 0.14475, 8.05456e-10, 3.22182e-05, 0.0132902
 4956, 433, 0.14475, 4.85587e-10, 1.94235e-05, 0.0132902
 4968, 434, 0.14475, 2.88473e-10, 1.15389e-05, 0.0132902
 4980, 435, 0.14475, 1.68811e-10, 6.75242e-06, 0.01329
 4992, 436, 0.14475, 9.72728e-11, 3.89091e-06, 0.0132901
 5004, 437, 0.14475, 5.5172e-11, 2.20688e-06, 0.01329
 5016, 438, 0.14475, 3.07904e-11, 1.23162e-06, 0.0132899
 5028, 439, 0.14475, 1.6901e-11, 6.7604e-07, 0.0132902
 5040, 440, 0.14475, 9.12088e-12, 3.64835e-07, 0.01329
 5052, 441, 0.14475, 4.8374e-12, 1.93496e-07, 0.0132901
 5064, 442, 0.14475, 2.52033e-12, 1.00813e-07, 0.0132901
 5076, 443, 0.14475, 1.28941e-12, 5.15763e-08, 0.0132901
 5088, 444, 0.14475, 6.47471e-13, 2.58989e-08, 0.0132901
 5100, 445, 0.14475, 3.18976e-13, 1.27591e-08, 0.01329
 5112, 446, 0.14475, 1.54102e-13, 6.16406e-09, 0.0132901
 5124, 447, 0.14475, 7.29738e-14, 2.91895e-09, 0.0132901
 5136, 448, 0.14475, 3.38559e-14, 1.35424e-09, 0.0132901
 5148, 449, 0.14475, 1.53816e-14, 6.15264e-10, 0.01329
 5160, 450, 0.14475, 6.83998e-15, 2.73599e-10, 0.0132901
 5172, 451, 0.14475, 2.97562e-15, 1.19025e-10, 0.0132901
 5184, 452, 0.14475, 1.26576e-15, 5.06303e-11, 0.0132901
 5196, 453, 0.14475, 5.26194e-16, 2.10477e-11, 0.01329
 5208, 454, 0.14475, 2.13665e-16, 8.54661e-12, 0.01329
 5220, 455, 0.14475, 8.46994e-17, 3.38798e-12, 0.01329
 5232, 456, 0.14475, 3.27601e-17, 1.3104e-12, 0.01329
 5244, 457, 0.14475, 1.23562e-17, 4.94248e-13, 0.0132901
 5256, 458, 0.14475, 4.54202e-18, 1.81681e-13, 0.01329
 5268, 459, 0.14475, 1.62623e-18, 6.50494e-14, 0.0132901
 5280, 460, 0.14475, 5.66799e-19, 2.2672e-14, 0.01329
 5292, 461, 0.14475, 1.92186e-19, 7.68744e-15, 0.01329
 5304, 462, 0.14475, 6.33566e-20, 2.53426e-15, 0.01329
 5316, 463, 0.14475, 2.02938e-20, 8.11753e-16, 0.0132901
 5328, 464, 0.14475, 6.31186e-21, 2.52475e-16, 0.01329
 5340, 465, 0.14475, 1.90497e-21, 7.61987e-17, 0.0132901
 5352, 466, 0.14475, 5.57522e-22, 2.23009e-17, 0.01329
 5364, 467, 0.14475, 1.58119e-22, 6.32477e-18, 0.01329
 5376, 468, 0.14475, 4.34261e-23, 1.73705e-18, 0.01329
 5388, 469, 0.14475, 1.15413e-23, 4.61651e-19, 0.0132901
 5400, 470, 0.14475, 2.96605e-24, 1.18642e-19, 0.0132901
 5412, 471, 0.14475, 7.36552e-25, 2.94621e-20, 0.01329
 5424, 472, 0.14475, 1.76605e-25, 7.06419e-21, 0.0132901
 5436, 473, 0.14475, 4.08547e-26, 1.63419e-21, 0.01329
 5448, 474, 0.14475, 9.11136e-27, 3.64454e-22, 0.01329
 5460, 475, 0.14475, 1.9574e-27, 7.82961e-23, 0.0132901
 5472, 476, 0.14475, 4.04744e-28, 1.61897e-23, 0.01329
 5484, 477, 0.14475, 8.04868e-29, 3.21947e-24, 0.0132899
 5496, 478, 0.14475, 1.53797e-29, 6.15188e-25, 0.0132901
 5508, 479, 0.14475, 2.82148e-30, 1.12859e-25, 0.01329
 5520, 480, 0.14475, 4.96514e-31, 1.98606e-26, 0.01329
 5532, 481, 0.14475, 8.37389e-32, 3.34955e-27, 0.0132899
 5544, 482, 0.14475, 1.35228e-32, 5.40914e-28, 0.0132901
 5556, 483, 0.14475, 2.08907e-33, 8.3563e-29, 0.0132901
 5568, 484, 0.14475, 3.08444e-34, 1.23378e-29, 0.0132899
 5580, 485, 0.14475, 4.34829e-35, 1.73932e-30, 0.0132901
 5592, 486, 0.14475, 5.84733e-36, 2.33893e-31, 0.01329
 5604, 487, 0.14475, 7.49312e-37, 2.99725e-32, 0.0132901
 5616, 488, 0.14475, 9.14098e-38, 3.65639e-33, 0.0132901
 5628, 489, 0.14475, 0.0000000E+000, 4.24192e-34, 0.0132901
 5640, 490, 0.14475, 0.0000000E+000, 4.67514e-35, 0.01329
 5652, 491, 0.14475, 0.0000000E+000, 4.88975e-36, 0.01329
 5664, 492, 0.14475, 0.0000000E+000, 4.84805e-37, 0.0132901
 5676, 493, 0.14475, 0.0000000E+000, 4.55149e-38, 0.0132901
 5688, 494, 0.14475, 0.0000000E+000, 0.0000000E+000, 0.01329
 5700, 495, 0.14475, 0.0000000E+000, 0.0000000E+000, 0.01329
 5712, 496, 0.14475, 0.0000000E+000, 0.0000000E+000, 0.0132901
 5724, 497, 0.14475, 0.0000000E+000, 0.0000000E+000, 0.0132901
 5736, 498, 0.14475, 0.0000000E+000, 0.0000000E+000, 0.01329
 5748, 499, 0.14475, 0.0000000E+000, 0.0000000E+000, 0.0132901
 5760, 500, 0.14475, 0.0000000E+000, 0.0000000E+000, 0.01329
 5772, 501, 0.14475, 0.0000000E+000, 0.0000000E+000, 0.01329
 5784, 502, 0.14475, 0.0000000E+000, 0.0000000E+000, 0.01329
 5796, 503, 0.14475, 0.0000000E+000, 0.0000000E+000, 0.0132901
 5808, 504, 0.14475, 0.0000000E+000, 0.0000000E+000, 0.0132901
 5820, 505, 0.14475, 0.0000000E+000, 0.0000000E+000, 0.01329
 5832, 506, 0.14475, 0.0000000E+000, 0.0000000E+000, 0.0132901
 5844, 507, 0.14475, 0.0000000E+000, 0.0000000E+000, 0.0132901
 5856, 508, 0.14475, 0.0000000E+000, 0.0000000E+000, 0.0132901
 5868, 509, 0.14475, 0.0000000E+000, 0.0000000E+000, 0.01329
 5880, 510, 0.14475, 0.0000000E+000, 0.0000000E+000, 0.0132901
 5892, 511, 0.14475, 0.0000000E+000, 0.0000000E+000, 0.01329
 5904, 512, 0.14475, 0.0000000E+000, 0.0000000E+000, 0.01329
 5916, 513, 0.14475, 0.0000000E+000, 0.0000000E+000, 0.01329
 5928, 514, 0.14475, 0.0000000E+000, 0.0000000E+000, 0.01329
 5940, 515, 0.14475, 0.0000000E+000, 0.0000000E+000, 0.0132901
 5952, 516, 0.14475, 0.0000000E+000, 0.0000000E+000, 0.01329
 5964, 517, 0.14475, 0.0000000E+000, 0.0000000E+000, 0.0132901
 5976, 518, 0.14475, 0.0000000E+000, 0.0000000E+000, 0.01329
 5988, 519, 0.14475, 0.0000000E+000, 0.0000000E+000, 0.01329
 6000, 520, 0.14475, 0.0000000E+000, 0.0000000E+000, 0.01329
 6012, 521, 0.14475, 0.0000000E+000, 0.0000000E+000, 0.0132901
 6024, 522, 0.14475, 0.0000000E+000, 0.0000000E+000, 0.0132899
 6036, 523, 0.14475, 0.0000000E+000, 0.0000000E+000, 0.0132901
 6048, 524, 0.14475, 0.0000000E+000, 0.0000000E+000, 0.01329
 6060, 525, 0.14475, 0.0000000E+000, 0.0000000E+000, 0.0132901
 6072, 526, 0.14475, 0.0000000E+000, 0.0000000E+000, 0.01329
 6084, 527, 0.14475, 0.0000000E+000, 0.0000000E+000, 0.01329
 6096, 528, 0.14475, 0.0000000E+000, 0.0000000E+000, 0.01329
 6108, 529, 0.14475, 0.0000000E+000, 0.0000000E+000, 0.0132901
 6120, 530, 0.14475, 0.0000000E+000, 0.0000000E+000, 0.01329
 6132, 531, 0.14475, 0.0000000E+000, 0.0000000E+000, 0.0132901
 6144, 532, 0.14475, 0.0000000E+000, 0.0000000E+000, 0.01329
 6156, 533, 0.14475, 0.0000000E+000, 0.0000000E+000, 0.01329
 6168, 534, 0.14475, 0.0000000E+000, 0.0000000E+000, 0.0132901
 6180, 535, 0.14475, 0.0000000E+000, 0.0000000E+000, 0.0132901
 6192, 536, 0.14475, 0.0000000E+000, 0.0000000E+000, 0.0132901
 6204, 537, 0.14475, 0.0000000E+000, 0.0000000E+000, 0.0132901
 6216, 538, 0.14475, 0.0000000E+000, 0.0000000E+000, 0.01329
 6228, 539, 0.14475, 0.0000000E+000, 0.0000000E+000, 0.0132901
 6240, 540, 0.14475, 0.0000000E+000, 0.0000000E+000, 0.01329
 6252, 541, 0.14475, 0.0000000E+000, 0.0000000E+000, 0.01329
 6264, 542, 0.14475, 0.0000000E+000, 0.0000000E+000, 0.01329
 6276, 543, 0.14475, 0.0000000E+000, 0.0000000E+000, 0.0132901
 6288, 544, 0.14475, 0.0000000E+000, 0.0000000E+000, 0.01329
 6300, 545, 0.14475, 0.0000000E+000, 0.0000000E+000, 0.01329
 6312, 546, 0.14475, 0.0000000E+000, 0.0000000E+000, 0.0132901
 6324, 547, 0.14475, 0.0000000E+000, 0.0000000E+000, 0.0132901
 6336, 548, 0.14475, 0.0000000E+000, 0.0000000E+000, 0.01329
 6348, 549, 0.14475, 0.0000000E+000, 0.0000000E+000, 0.01329
 6360, 550, 0.14475, 0.0000000E+000, 0.0000000E+000, 0.0132901
 6372, 551, 0.14475, 0.0000000E+000, 0.0000000E+000, 0.0132901
 6384, 552, 0.14475, 0.0000000E+000, 0.0000000E+000, 0.01329
 6396, 553, 0.14475, 0.0000000E+000, 0.0000000E+000, 0.01329
 6408, 554, 0.14475, 0.0000000E+000, 0.0000000E+000, 0.01329
 6420, 555, 0.14475, 0.0000000E+000, 0.0000000E+000, 0.01329
 6432, 556, 0.14475, 0.0000000E+000, 0.0000000E+000, 0.01329
 6444, 557, 0.14475, 0.0000000E+000, 0.0000000E+000, 0.01329
 6456, 558, 0.14475, 0.0000000E+000, 0.0000000E+000, 0.0132899
 6468, 559, 0.14475, 0.0000000E+000, 0.0000000E+000, 0.01329
 6480, 560, 0.14475, 0.0000000E+000, 0.0000000E+000, 0.0132901
 6492, 561, 0.14475, 0.0000000E+000, 0.0000000E+000, 0.0132902
 6504, 562, 0.14475, 0.0000000E+000, 0.0000000E+000, 0.01329
 6516, 563, 0.14475, 0.0000000E+000, 0.0000000E+000, 0.01329
 6528, 564, 0.14475, 0.0000000E+000, 0.0000000E+000, 0.01329
 6540, 565, 0.14475, 0.0000000E+000, 0.0000000E+000, 0.0132901
 6552, 566, 0.14475, 0.0000000E+000, 0.0000000E+000, 0.01329
 6564, 567, 0.14475, 0.0000000E+000, 0.0000000E+000, 0.01329
 6576, 568, 0.14475, 0.0000000E+000, 0.0000000E+000, 0.01329
 6588, 569, 0.14475, 0.0000000E+000, 0.0000000E+000, 0.01329
 6600, 570, 0.14475, 0.0000000E+000, 0.0000000E+000, 0.01329
 6612, 571, 0.14475, 0.0000000E+000, 0.0000000E+000, 0.01329
 6624, 572, 0.14475, 0.0000000E+000, 0.0000000E+000, 0.0132901
 6636, 573, 0.14475, 0.0000000E+000, 0.0000000E+000, 0.01329
 6648, 574, 0.14475, 0.0000000E+000, 0.0000000E+000, 0.01329
 6660, 575, 0.14475, 0.0000000E+000, 0.0000000E+000, 0.0132901
 6672, 576, 0.14475, 0.0000000E+000, 0.0000000E+000, 0.01329
 6684, 577, 0.14475, 0.0000000E+000, 0.0000000E+000, 0.0132901
 6696, 578, 0.14475, 0.0000000E+000, 0.0000000E+000, 0.0132901
 6708, 579, 0.14475, 0.0000000E+000, 0.0000000E+000, 0.01329
 6720, 580, 0.14475, 0.0000000E+000, 0.0000000E+000, 0.0132901
 6732, 581, 0.14475, 0.0000000E+000, 0.0000000E+000, 0.0132901
 6744, 582, 0.14475, 0.0000000E+000, 0.0000000E+000, 0.01329
 6756, 583, 0.14475, 0.0000000E+000, 0.0000000E+000, 0.0132899
 6768, 584, 0.14475, 0.0000000E+000, 0.0000000E+000, 0.0132901
 6780, 585, 0.14475, 0.0000000E+000, 0.0000000E+000, 0.0132901
 6792, 586, 0.14475, 0.0000000E+000, 0.0000000E+000, 0.0132901
 6804, 587, 0.14475, 0.0000000E+000, 0.0000000E+000, 0.01329
 6816, 588, 0.14475, 0.0000000E+000, 0.0000000E+000, 0.01329
 6828, 589, 0.14475, 0.0000000E+000, 0.0000000E+000, 0.0132901
 6840, 590, 0.14475, 0.0000000E+000, 0.0000000E+000, 0.01329
 6852, 591, 0.14475, 0.0000000E+000, 0.0000000E+000, 0.0132901
 6864, 592, 0.14475, 0.0000000E+000, 0.0000000E+000, 0.0132901
 6876, 593, 0.14475, 0.0000000E+000, 0.0000000E+000, 0.01329
 6888, 594, 0.14475, 0.0000000E+000, 0.0000000E+000, 0.01329
 6900, 595, 0.14475, 0.0000000E+000, 0.0000000E+000, 0.01329
 6912, 596, 0.14475, 0.0000000E+000, 0.0000000E+000, 0.01329
 6924, 597, 0.14475, 0.0000000E+000, 0.0000000E+000, 0.01329
 6936, 598, 0.14475, 0.0000000E+000, 0.0000000E+000, 0.01329
 6948, 599, 0.14475, 0.0000000E+000, 0.0000000E+000, 0.0132901
 6960, 600, 0.14475, 0.0000000E+000, 0.0000000E+000, 0.01329
 6972, 601, 0.14475, 0.0000000E+000, 0.0000000E+000, 0.01329
 6984, 602, 0.14475, 0.0000000E+000, 0.0000000E+000, 0.01329
 6996, 603, 0.14475, 0.0000000E+000, 0.0000000E+000, 0.01329
 7008, 604, 0.14475, 0.0000000E+000, 0.0000000E+000, 0.0132901
 7020, 605, 0.14475, 0.0000000E+000, 0.0000000E+000, 0.0132901
 7032, 606, 0.14475, 0.0000000E+000, 0.0000000E+000, 0.0132901
 7044, 607, 0.14475, 0.0000000E+000, 0.0000000E+000, 0.01329
 7056, 608, 0.14475, 0.0000000E+000, 0.0000000E+000, 0.0132901
 7068, 609, 0.14475, 0.0000000E+000, 0.0000000E+000, 0.0132901
 7080, 610, 0.14475, 0.0000000E+000, 0.0000000E+000, 0.01329
 7092, 611, 0.14475, 0.0000000E+000, 0.0000000E+000, 0.01329
 7104, 612, 0.14475, 0.0000000E+000, 0.0000000E+000, 0.01329
 7116, 613, 0.14475, 0.0000000E+000, 0.0000000E+000, 0.0132901
 7128, 614, 0.14475, 0.0000000E+000, 0.0000000E+000, 0.0132901
 7140, 615, 0.14475, 0.0000000E+000, 0.0000000E+000, 0.01329
 7152, 616, 0.14475, 0.0000000E+000, 0.0000000E+000, 0.01329
 7164, 617, 0.14475, 0.0000000E+000, 0.0000000E+000, 0.01329
 7176, 618, 0.14475, 0.0000000E+000, 0.0000000E+000, 0.0132901
 7188, 619, 0.14475, 0.0000000E+000, 0.0000000E+000, 0.0132901
 7200, 620, 0.14475, 0.0000000E+000, 0.0000000E+000, 0.0132901
 7212, 621, 0.14475, 0.0000000E+000, 0.0000000E+000, 0.01329
 7224, 622, 0.14475, 0.0000000E+000, 0.0000000E+000, 0.01329
 7236, 623, 0.14475, 0.0000000E+000, 0.0000000E+000, 0.0132901
 7248, 624, 0.14475, 0.0000000E+000, 0.0000000E+000, 0.01329
 7260, 625, 0.14475, 0.0000000E+000, 0.0000000E+000, 0.01329
 7272, 626, 0.14475, 0.0000000E+000, 0.0000000E+000, 0.01329
 7284, 627, 0.14475, 0.0000000E+000, 0.0000000E+000, 0.01329
 7296, 628, 0.14475, 0.0000000E+000, 0.0000000E+000, 0.01329
 7308, 629, 0.14475, 0.0000000E+000, 0.0000000E+000, 0.01329
 7320, 630, 0.14475, 0.0000000E+000, 0.0000000E+000, 0.01329
 7332, 631, 0.14475, 0.0000000E+000, 0.0000000E+000, 0.0132901
 7344, 632, 0.14475, 0.0000000E+000, 0.0000000E+000, 0.0132901
 7356, 633, 0.14475, 0.0000000E+000, 0.0000000E+000, 0.01329
 7368, 634, 0.14475, 0.0000000E+000, 0.0000000E+000, 0.0132901
 7380, 635, 0.14475, 0.0000000E+000, 0.0000000E+000, 0.0132899
 7392, 636, 0.14475, 0.0000000E+000, 0.0000000E+000, 0.01329
 7404, 637, 0.14475, 0.0000000E+000, 0.0000000E+000, 0.01329
 7416, 638, 0.14475, 0.0000000E+000, 0.0000000E+000, 0.0132901
 7428, 639, 0.14475, 0.0000000E+000, 0.0000000E+000, 0.0132901
 7440, 640, 0.14475, 0.0000000E+000, 0.0000000E+000, 0.01329
 7452, 641, 0.14475, 0.0000000E+000, 0.0000000E+000, 0.01329
 7464, 642, 0.14475, 0.0000000E+000, 0.0000000E+000, 0.01329
 7476, 643, 0.14475, 0.0000000E+000, 0.0000000E+000, 0.01329
 7488, 644, 0.14475, 0.0000000E+000, 0.0000000E+000, 0.0132901
 7500, 645, 0.14475, 0.0000000E+000, 0.0000000E+000, 0.01329
 7512, 646, 0.14475, 0.0000000E+000, 0.0000000E+000, 0.0132901
 7524, 647, 0.14475, 0.0000000E+000, 0.0000000E+000, 0.01329
 7536, 648, 0.14475, 0.0000000E+000, 0.0000000E+000, 0.0132901
 7548, 649, 0.14475, 0.0000000E+000, 0.0000000E+000, 0.01329
 7560, 650, 0.14475, 0.0000000E+000, 0.0000000E+000, 0.01329
 7572, 651, 0.14475, 0.0000000E+000, 0.0000000E+000, 0.0132901
 7584, 652, 0.14475, 0.0000000E+000, 0.0000000E+000, 0.0132901
 7596, 653, 0.14475, 0.0000000E+000, 0.0000000E+000, 0.01329
 7608, 654, 0.14475, 0.0000000E+000, 0.0000000E+000, 0.01329
 7620, 655, 0.14475, 0.0000000E+000, 0.0000000E+000, 0.0132899
 7632, 656, 0.14475, 0.0000000E+000, 0.0000000E+000, 0.01329
 7644, 657, 0.14475, 0.0000000E+000, 0.0000000E+000, 0.0132901
 7656, 658, 0.14475, 0.0000000E+000, 0.0000000E+000, 0.01329
 7668, 659, 0.14475, 0.0000000E+000, 0.0000000E+000, 0.01329
 7680, 660, 0.14475, 0.0000000E+000, 0.0000000E+000, 0.01329
 7692, 661, 0.14475, 0.0000000E+000, 0.0000000E+000, 0.01329
 7704, 662, 0.14475, 0.0000000E+000, 0.0000000E+000, 0.01329
 7716, 663, 0.14475, 0.0000000E+000, 0.0000000E+000, 0.01329
 7728, 664, 0.14475, 0.0000000E+000, 0.0000000E+000, 0.01329
 7740, 665, 0.14475, 0.0000000E+000, 0.0000000E+000, 0.01329
 7752, 666, 0.14475, 0.0000000E+000, 0.0000000E+000, 0.01329
 7764, 667, 0.14475, 0.0000000E+000, 0.0000000E+000, 0.0132901
 7776, 668, 0.14475, 0.0000000E+000, 0.0000000E+000, 0.01329
 7788, 669, 0.14475, 0.0000000E+000, 0.0000000E+000, 0.01329
 7800, 670, 0.14475, 0.0000000E+000, 0.0000000E+000, 0.01329
 7812, 671, 0.14475, 0.0000000E+000, 0.0000000E+000, 0.0132901
 7824, 672, 0.14475, 0.0000000E+000, 0.0000000E+000, 0.0132901
 7836, 673, 0.14475, 0.0000000E+000, 0.0000000E+000, 0.0132901
 7848, 674, 0.14475, 0.0000000E+000, 0.0000000E+000, 0.01329
 7860, 675, 0.14475, 0.0000000E+000, 0.0000000E+000, 0.01329
 7872, 676, 0.14475, 0.0000000E+000, 0.0000000E+000, 0.0132901
 7884, 677, 0.14475, 0.0000000E+000, 0.0000000E+000, 0.0132901
 7896, 678, 0.14475, 0.0000000E+000, 0.0000000E+000, 0.01329
 7908, 679, 0.14475, 0.0000000E+000, 0.0000000E+000, 0.01329
 7920, 680, 0.14475, 0.0000000E+000, 0.0000000E+000, 0.0132901
 7932, 681, 0.14475, 0.0000000E+000, 0.0000000E+000, 0.0132899
 7944, 682, 0.14475, 0.0000000E+000, 0.0000000E+000, 0.01329
 7956, 683, 0.14475, 0.0000000E+000, 0.0000000E+000, 0.0132901
 7968, 684, 0.14475, 0.0000000E+000, 0.0000000E+000, 0.0132899
 7980, 685, 0.14475, 0.0000000E+000, 0.0000000E+000, 0.0132901
 7992, 686, 0.14475, 0.0000000E+000, 0.0000000E+000, 0.0132899
 8004, 687, 0.14475, 0.0000000E+000, 0.0000000E+000, 0.01329
 8016, 688, 0.14475, 0.0000000E+000, 0.0000000E+000, 0.01329
 8028, 689, 0.14475, 0.0000000E+000, 0.0000000E+000, 0.0132901
 8040, 690, 0.14475, 0.0000000E+000, 0.0000000E+000, 0.0132901
 8052, 691, 0.14475, 0.0000000E+000, 0.0000000E+000, 0.01329
 8064, 692, 0.14475, 0.0000000E+000, 0.0000000E+000, 0.0132901
 8076, 693, 0.14475, 0.0000000E+000, 0.0000000E+000, 0.0132901
 8088, 694, 0.14475, 0.0000000E+000, 0.0000000E+000, 0.01329
 8100, 695, 0.14475, 0.0000000E+000, 0.0000000E+000, 0.0132899
 8112, 696, 0.14475, 0.0000000E+000, 0.0000000E+000, 0.0132901
 8124, 697, 0.14475, 0.0000000E+000, 0.0000000E+000, 0.01329
 8136, 698, 0.14475, 0.0000000E+000, 0.0000000E+000, 0.01329
 8148, 699, 0.14475, 0.0000000E+000, 0.0000000E+000, 0.01329
 8160, 700, 0.14475, 0.0000000E+000, 0.0000000E+000, 0.0132901
 8172, 701, 0.14475, 0.0000000E+000, 0.0000000E+000, 0.01329
 8184, 702, 0.14475, 0.0000000E+000, 0.0000000E+000, 0.0132899
 8196, 703, 0.14475, 0.0000000E+000, 0.0000000E+000, 0.01329
 8208, 704, 0.14475, 0.0000000E+000, 0.0000000E+000, 0.0132901
 8220, 705, 0.14475, 0.0000000E+000, 0.0000000E+000, 0.0132899
 8232, 706, 0.14475, 0.0000000E+000, 0.0000000E+000, 0.0132901
 8244, 707, 0.14475, 0.0000000E+000, 0.0000000E+000, 0.0132901
 8256, 708, 0.14475, 0.0000000E+000, 0.0000000E+000, 0.0132901
 8268, 709, 0.14475, 0.0000000E+000, 0.0000000E+000, 0.0132901
 8280, 710, 0.14475, 0.0000000E+000, 0.0000000E+000, 0.0132901
 8292, 711, 0.14475, 0.0000000E+000, 0.0000000E+000, 0.0132901
 8304, 712, 0.14475, 0.0000000E+000, 0.0000000E+000, 0.01329
 8316, 713, 0.14475, 0.0000000E+000, 0.0000000E+000, 0.0132901
 8328, 714, 0.14475, 0.0000000E+000, 0.0000000E+000, 0.01329
 8340, 715, 0.14475, 0.0000000E+000, 0.0000000E+000, 0.0132901
 8352, 716, 0.14475, 0.0000000E+000, 0.0000000E+000, 0.0132901
 8364, 717, 0.14475, 0.0000000E+000, 0.0000000E+000, 0.01329
 8376, 718, 0.14475, 0.0000000E+000, 0.0000000E+000, 0.01329
 8388, 719, 0.14475, 0.0000000E+000, 0.0000000E+000, 0.0132901
 8400, 720, 0.14475, 0.0000000E+000, 0.0000000E+000, 0.01329
 8412, 721, 0.14475, 0.0000000E+000, 0.0000000E+000, 0.0132899
 8424, 722, 0.14475, 0.0000000E+000, 0.0000000E+000, 0.01329
 8436, 723, 0.14475, 0.0000000E+000, 0.0000000E+000, 0.01329
 8448, 724, 0.14475, 0.0000000E+000, 0.0000000E+000, 0.01329
 8460, 725, 0.14475, 0.0000000E+000, 0.0000000E+000, 0.01329
 8472, 726, 0.14475, 0.0000000E+000, 0.0000000E+000, 0.01329
 8484, 727, 0.14475, 0.0000000E+000, 0.0000000E+000, 0.01329
 8496, 728, 0.14475, 0.0000000E+000, 0.0000000E+000, 0.01329
 8508, 729, 0.14475, 0.0000000E+000, 0.0000000E+000, 0.01329
 8520, 730, 0.14475, 0.0000000E+000, 0.0000000E+000, 0.01329
 8532, 731, 0.14475, 0.0000000E+000, 0.0000000E+000, 0.01329
 8544, 732, 0.14475, 0.0000000E+000, 0.0000000E+000, 0.0132901
 8556, 733, 0.14475, 0.0000000E+000, 0.0000000E+000, 0.01329
 8568, 734, 0.14475, 0.0000000E+000, 0.0000000E+000, 0.01329
 8580, 735, 0.14475, 0.0000000E+000, 0.0000000E+000, 0.0132901
 8592, 736, 0.14475, 0.0000000E+000, 0.0000000E+000, 0.0132901
 8604, 737, 0.14475, 0.0000000E+000, 0.0000000E+000, 0.01329
 8616, 738, 0.14475, 0.0000000E+000, 0.0000000E+000, 0.0132901
 8628, 739, 0.14475, 0.0000000E+000, 0.0000000E+000, 0.01329
 8640, 740, 0.14475, 0.0000000E+000, 0.0000000E+000, 0.01329
 8652, 741, 0.14475, 0.0000000E+000, 0.0000000E+000, 0.01329
 8664, 742, 0.14475, 0.0000000E+000, 0.0000000E+000, 0.01329
 8676, 743, 0.14475, 0.0000000E+000, 0.0000000E+000, 0.01329
 8688, 744, 0.14475, 0.0000000E+000, 0.0000000E+000, 0.0132901
 8700, 745, 0.14475, 0.0000000E+000, 0.0000000E+000, 0.0132901
 8712, 746, 0.14475, 0.0000000E+000, 0.0000000E+000, 0.0132901
 8724, 747, 0.14475, 0.0000000E+000, 0.0000000E+000, 0.0132901
 8736, 748, 0.14475, 0.0000000E+000, 0.0000000E+000, 0.0132901
 8748, 749, 0.14475, 0.0000000E+000, 0.0000000E+000, 0.01329
 8760, 750, 0.14475, 0.0000000E+000, 0.0000000E+000, 0.0132901
 8772, 751, 0.14475, 0.0000000E+000, 0.0000000E+000, 0.01329
 8784, 752, 0.14475, 0.0000000E+000, 0.0000000E+000, 0.0132901
 8796, 753, 0.14475, 0.0000000E+000, 0.0000000E+000, 0.01329
 8808, 754, 0.14475, 0.0000000E+000, 0.0000000E+000, 0.01329
 8820, 755, 0.14475, 0.0000000E+000, 0.0000000E+000, 0.01329
 8832, 756, 0.14475, 0.0000000E+000, 0.0000000E+000, 0.01329
 8844, 757, 0.14475, 0.0000000E+000, 0.0000000E+000, 0.0132899
 8856, 758, 0.14475, 0.0000000E+000, 0.0000000E+000, 0.01329
 8868, 759, 0.14475, 0.0000000E+000, 0.0000000E+000, 0.0132899
 8880, 760, 0.14475, 0.0000000E+000, 0.0000000E+000, 0.0132901
 8892, 761, 0.14475, 0.0000000E+000, 0.0000000E+000, 0.0132899
 8904, 762, 0.14475, 0.0000000E+000, 0.0000000E+000, 0.0132899
 8916, 763, 0.14475, 0.0000000E+000, 0.0000000E+000, 0.01329
 8928, 764, 0.14475, 0.0000000E+000, 0.0000000E+000, 0.0132901
 8940, 765, 0.14475, 0.0000000E+000, 0.0000000E+000, 0.01329
 8952, 766, 0.14475, 0.0000000E+000, 0.0000000E+000, 0.01329
 8964, 767, 0.14475, 0.0000000E+000, 0.0000000E+000, 0.0132899
 8976, 768, 0.14475, 0.0000000E+000, 0.0000000E+000, 0.0132899
 8988, 769, 0.14475, 0.0000000E+000, 0.0000000E+000, 0.01329
 9000, 770, 0.14475, 0.0000000E+000, 0.0000000E+000, 0.0132899
 9012, 771, 0.14475, 0.0000000E+000, 0.0000000E+000, 0.01329
 9024, 772, 0.14475, 0.0000000E+000, 0.0000000E+000, 0.0132901
 9036, 773, 0.14475, 0.0000000E+000, 0.0000000E+000, 0.0132901
 9048, 774, 0.14475, 0.0000000E+000, 0.0000000E+000, 0.0132899
 9060, 775, 0.14475, 0.0000000E+000, 0.0000000E+000, 0.01329
 9072, 776, 0.14475, 0.0000000E+000, 0.0000000E+000, 0.0132902
 9084, 777, 0.14475, 0.0000000E+000, 0.0000000E+000, 0.0132902
 9096, 778, 0.14475, 0.0000000E+000, 0.0000000E+000, 0.0132901
 9108, 779, 0.14475, 0.0000000E+000, 0.0000000E+000, 0.0132901
 9120, 780, 0.14475, 0.0000000E+000, 0.0000000E+000, 0.0132899
 9132, 781, 0.14475, 0.0000000E+000, 0.0000000E+000, 0.01329
 9144, 782, 0.14475, 0.0000000E+000, 0.0000000E+000, 0.01329
 9156, 783, 0.14475, 0.0000000E+000, 0.0000000E+000, 0.0132902
 9168, 784, 0.14475, 0.0000000E+000, 0.0000000E+000, 0.01329
 9180, 785, 0.14475, 0.0000000E+000, 0.0000000E+000, 0.0132899
 9192, 786, 0.14475, 0.0000000E+000, 0.0000000E+000, 0.01329
 9204, 787, 0.14475, 0.0000000E+000, 0.0000000E+000, 0.0132902
 9216, 788, 0.14475, 0.0000000E+000, 0.0000000E+000, 0.01329
 9228, 789, 0.14475, 0.0000000E+000, 0.0000000E+000, 0.01329
 9240, 790, 0.14475, 0.0000000E+000, 0.0000000E+000, 0.0132899
 9252, 791, 0.14475, 0.0000000E+000, 0.0000000E+000, 0.01329
 9264, 792, 0.14475, 0.0000000E+000, 0.0000000E+000, 0.0132901
 9276, 793, 0.14475, 0.0000000E+000, 0.0000000E+000, 0.01329
 9288, 794, 0.14475, 0.0000000E+000, 0.0000000E+000, 0.01329
 9300, 795, 0.14475, 0.0000000E+000, 0.0000000E+000, 0.01329
 9312, 796, 0.14475, 0.0000000E+000, 0.0000000E+000, 0.0132902
 9324, 797, 0.14475, 0.0000000E+000, 0.0000000E+000, 0.01329
 9336, 798, 0.14475, 0.0000000E+000, 0.0000000E+000, 0.01329
 9348, 799, 0.14475, 0.0000000E+000, 0.0000000E+000, 0.01329
 9360, 800, 0.14475, 0.0000000E+000, 0.0000000E+000, 0.01329