File: examples/Birch_TGA_Example/Best/birch_tga_1step_2_tga.csv
s,C,g/g,1/s,W/g,W/g
Time,Temp,Mass,MLR,MCC,DSC
 30, 21.0001, 0.9725, 8.52729e-14, 3.41092e-09, 0.0434918
 60, 22.0001, 0.9725, 9.96162e-14, 3.98465e-09, 0.0434918
 90, 23.0001, 0.9725, 1.1625e-13, 4.65e-09, 0.0434918
 120, 24.0001, 0.9725, 1.3552e-13, 5.42081e-09, 0.0434918
 150, 25.0001, 0.9725, 1.57822e-13, 6.3129e-09, 0.0434918
 180, 26.0001, 0.9725, 1.83608e-13, 7.34431e-09, 0.0434918
 210, 27.0001, 0.9725, 2.13391e-13, 8.53562e-09, 0.0434918
 240, 28.0001, 0.9725, 2.47757e-13, 9.91028e-09, 0.0434918
 270, 29.0001, 0.9725, 2.87374e-13, 1.1495e-08, 0.0434918
 300, 30.0001, 0.9725, 3.33e-13, 1.332e-08, 0.0434918
 330, 31.0001, 0.9725, 3.85496e-13, 1.54198e-08, 0.0434918
 360, 32.0001, 0.9725, 4.45839e-13, 1.78336e-08, 0.0434918
 390, 33.0001, 0.9725, 5.15139e-13, 2.06056e-08, 0.0434918
 420, 34.0001, 0.9725, 5.94651e-13, 2.37861e-08, 0.0434918
 450, 35.0001, 0.9725, 6.85797e-13, 2.74319e-08, 0.0434918
 480, 36.0001, 0.9725, 7.90184e-13, 3.16073e-08, 0.0434918
 510, 37.0001, 0.9725, 9.09628e-13, 3.63851e-08, 0.0434918
 540, 38.0001, 0.9725, 1.04618e-12, 4.18472e-08, 0.0434918
 570, 39.0001, 0.9725, 1.20215e-12, 4.80861e-08, 0.0434918
 600, 40.0001, 0.9725, 1.38016e-12, 5.52062e-08, 0.0434918
 630, 41.0001, 0.9725, 1.58312e-12, 6.33249e-08, 0.0434918
 660, 42.0001, 0.9725, 1.81436e-12, 7.25742e-08, 0.0434918
 690, 43.0001, 0.9725, 2.07757e-12, 8.31029e-08, 0.0434918
 720, 44.0001, 0.9725, 2.37694e-12, 9.50777e-08, 0.0434918
 750, 45.0001, 0.9725, 2.71715e-12, 1.08686e-07, 0.0434918
 780, 46.0001, 0.9725, 3.10345e-12, 1.24138e-07, 0.0434918
 810, 47.0001, 0.9725, 3.54173e-12, 1.41669e-07, 0.0434918
 840, 48.0001, 0.9725, 4.03858e-12, 1.61543e-07, 0.0434918
 870, 49.0001, 0.9725, 4.60137e-12, 1.84055e-07, 0.0434918
 900, 50.0001, 0.9725, 5.23836e-12, 2.09535e-07, 0.0434918
 930, 51.0001, 0.9725, 5.95877e-12, 2.38351e-07, 0.0434918
 960, 52.0001, 0.9725, 6.77288e-12, 2.70915e-07, 0.0434918
 990, 53.0001, 0.9725, 7.69218e-12, 3.07687e-07, 0.0434918
 1020, 54.0001, 0.9725, 8.72946e-12, 3.49178e-07, 0.0434918
 1050, 55.0001, 0.9725, 9.89897e-12, 3.95959e-07, 0.0434918
 1080, 56.0001, 0.9725, 1.12166e-11, 4.48664e-07, 0.0434918
 1110, 57.0001, 0.9725, 1.27e-11, 5.08e-07, 0.0434918
 1140, 58.0001, 0.9725, 1.43688e-11, 5.74752e-07, 0.0434918
 1170, 59.0001, 0.9725, 1.62448e-11, 6.49792e-07, 0.0434918
 1200, 60.0001, 0.9725, 1.83522e-11, 7.34088e-07, 0.0434918
 1230, 61.0001, 0.9725, 2.07179e-11, 8.28715e-07, 0.0434918
 1260, 62.0001, 0.9725, 2.33716e-11, 9.34862e-07, 0.0434918
 1290, 63.0001, 0.9725, 2.63462e-11, 1.05385e-06, 0.0434918
 1320, 64.0001, 0.9725, 2.96785e-11, 1.18714e-06, 0.0434918
 1350, 65.0001, 0.9725, 3.34086e-11, 1.33634e-06, 0.0434918
 1380, 66.0001, 0.9725, 3.75813e-11, 1.50325e-06, 0.0434918
 1410, 67.0001, 0.9725, 4.22459e-11, 1.68983e-06, 0.0434918
 1440, 68.0001, 0.9725, 4.74569e-11, 1.89827e-06, 0.0434918
 1470, 69.0001, 0.9725, 5.32744e-11, 2.13098e-06, 0.0434918
 1500, 70.0001, 0.9725, 5.97648e-11, 2.39059e-06, 0.0434918
 1530, 71.0001, 0.9725, 6.70012e-11, 2.68005e-06, 0.0434918
 1560, 72.0001, 0.9725, 7.5064e-11, 3.00256e-06, 0.0434918
 1590, 73.0001, 0.9725, 8.40419e-11, 3.36168e-06, 0.0434918
 1620, 74.0001, 0.9725, 9.40323e-11, 3.76129e-06, 0.0434918
 1650, 75.0001, 0.9725, 1.05143e-10, 4.2057e-06, 0.0434918
 1680, 76.0001, 0.9725, 1.1749e-10, 4.69961e-06, 0.0434918
 1710, 77.0001, 0.9725, 1.31205e-10, 5.24819e-06, 0.0434918
 1740, 78.0001, 0.9725, 1.46428e-10, 5.85713e-06, 0.0434919
 1770, 79.0001, 0.9725, 1.63316e-10, 6.53264e-06, 0.0434918
 1800, 80.0001, 0.9725, 1.82039e-10, 7.28156e-06, 0.0434919
 1830, 81.0001, 0.9725, 2.02784e-10, 8.11136e-06, 0.0434919
 1860, 82.0001, 0.9725, 2.25756e-10, 9.03023e-06, 0.0434919
 1890, 83.0001, 0.9725, 2.51179e-10, 1.00471e-05, 0.0434919
 1920, 84.0001, 0.9725, 2.79297e-10, 1.11719e-05, 0.0434919
 1950, 85.0001, 0.9725, 3.1038e-10, 1.24152e-05, 0.0434919
 1980, 86.0001, 0.9725, 3.44719e-10, 1.37888e-05, 0.0434919
 2010, 87.0001, 0.9725, 3.82634e-10, 1.53054e-05, 0.0434919
 2040, 88.0001, 0.9725, 4.24475e-10, 1.6979e-05, 0.0434919
 2070, 89.0001, 0.9725, 4.7062e-10, 1.88248e-05, 0.0434919
 2100, 90.0001, 0.9725, 5.21486e-10, 2.08594e-05, 0.0434919
 2130, 91.0001, 0.9725, 5.77523e-10, 2.31009e-05, 0.0434919
 2160, 92.0001, 0.9725, 6.39225e-10, 2.5569e-05, 0.043492
 2190, 93.0001, 0.9725, 7.07127e-10, 2.82851e-05, 0.043492
 2220, 94.0001, 0.9725, 7.81811e-10, 3.12725e-05, 0.043492
 2250, 95.0001, 0.9725, 8.63913e-10, 3.45565e-05, 0.043492
 2280, 96.0001, 0.9725, 9.54119e-10, 3.81648e-05, 0.043492
 2310, 97.0001, 0.9725, 1.05318e-09, 4.21272e-05, 0.0434921
 2340, 98.0001, 0.9725, 1.16191e-09, 4.64762e-05, 0.0434921
 2370, 99.0001, 0.9725, 1.28118e-09, 5.12472e-05, 0.0434921
 2400, 100, 0.9725, 1.41196e-09, 5.64784e-05, 0.0434922
 2430, 101, 0.9725, 1.55528e-09, 6.22112e-05, 0.0434922
 2460, 102, 0.972499, 1.71226e-09, 6.84905e-05, 0.0434922
 2490, 103, 0.972499, 1.88413e-09, 7.53652e-05, 0.0434923
 2520, 104, 0.972499, 2.0722e-09, 8.28879e-05, 0.0434923
 2550, 105, 0.972499, 2.27789e-09, 9.11155e-05, 0.0434924
 2580, 106, 0.972499, 2.50275e-09, 0.00010011, 0.0434924
 2610, 107, 0.972499, 2.74844e-09, 0.000109938, 0.0434925
 2640, 108, 0.972499, 3.01677e-09, 0.000120671, 0.0434926
 2670, 109, 0.972499, 3.30969e-09, 0.000132388, 0.0434926
 2700, 110, 0.972499, 3.62929e-09, 0.000145172, 0.0434927
 2730, 111, 0.972499, 3.97784e-09, 0.000159114, 0.0434928
 2760, 112, 0.972499, 4.35779e-09, 0.000174312, 0.0434929
 2790, 113, 0.972498, 4.77178e-09, 0.000190871, 0.043493
 2820, 114, 0.972498, 5.22264e-09, 0.000208906, 0.0434931
 2850, 115, 0.972498, 5.71345e-09, 0.000228538, 0.0434932
 2880, 116, 0.972498, 6.2475e-09, 0.0002499, 0.0434934
 2910, 117, 0.972498, 6.82834e-09, 0.000273134, 0.0434935
 2940, 118, 0.972498, 7.45979e-09, 0.000298392, 0.0434937
 2970, 119, 0.972497, 8.14595e-09, 0.000325838, 0.0434938
 3000, 120, 0.972497, 8.89125e-09, 0.00035565, 0.043494
 3030, 121, 0.972497, 9.70043e-09, 0.000388017, 0.0434942
 3060, 122, 0.972497, 1.05786e-08, 0.000423143, 0.0434944
 3090, 123, 0.972496, 1.15312e-08, 0.000461248, 0.0434947
 3120, 124, 0.972496, 1.25641e-08, 0.000502565, 0.0434949
 3150, 125, 0.972495, 1.36837e-08, 0.000547347, 0.0434952
 3180, 126, 0.972495, 1.48966e-08, 0.000595865, 0.0434955
 3210, 127, 0.972495, 1.62102e-08, 0.000648408, 0.0434959
 3240, 128, 0.972494, 1.76322e-08, 0.000705288, 0.0434962
 3270, 129, 0.972493, 1.91709e-08, 0.000766836, 0.0434966
 3300, 130, 0.972493, 2.08352e-08, 0.000833409, 0.043497
 3330, 131, 0.972492, 2.26347e-08, 0.000905388, 0.0434974
 3360, 132, 0.972491, 2.45796e-08, 0.000983182, 0.0434979
 3390, 133, 0.972491, 2.66807e-08, 0.00106723, 0.0434984
 3420, 134, 0.97249, 2.89497e-08, 0.00115799, 0.043499
 3450, 135, 0.972489, 3.13992e-08, 0.00125597, 0.0434996
 3480, 136, 0.972488, 3.40424e-08, 0.0013617, 0.0435002
 3510, 137, 0.972487, 3.68936e-08, 0.00147574, 0.0435009
 3540, 138, 0.972486, 3.99679e-08, 0.00159872, 0.0435017
 3570, 139, 0.972485, 4.32815e-08, 0.00173126, 0.0435025
 3600, 140, 0.972483, 4.68519e-08, 0.00187407, 0.0435034
 3630, 141, 0.972482, 5.06973e-08, 0.00202789, 0.0435044
 3660, 142, 0.97248, 5.48375e-08, 0.0021935, 0.0435054
 3690, 143, 0.972478, 5.92934e-08, 0.00237174, 0.0435065
 3720, 144, 0.972477, 6.40874e-08, 0.0025635, 0.0435077
 3750, 145, 0.972475, 6.92432e-08, 0.00276973, 0.043509
 3780, 146, 0.972472, 7.47861e-08, 0.00299145, 0.0435103
 3810, 147, 0.97247, 8.07432e-08, 0.00322973, 0.0435118
 3840, 148, 0.972468, 8.7143e-08, 0.00348572, 0.0435133
 3870, 149, 0.972465, 9.4016e-08, 0.00376064, 0.043515
 3900, 150, 0.972462, 1.01395e-07, 0.00405579, 0.0435169
 3930, 151, 0.972459, 1.09314e-07, 0.00437254, 0.0435188
 3960, 152, 0.972455, 1.17809e-07, 0.00471237, 0.0435209
 3990, 153, 0.972452, 1.2692e-07, 0.00507682, 0.0435232
 4020, 154, 0.972448, 1.36689e-07, 0.00546754, 0.0435255
 4050, 155, 0.972444, 1.47157e-07, 0.0058863, 0.0435281
 4080, 156, 0.972439, 1.58373e-07, 0.00633494, 0.0435308
 4110, 157, 0.972434, 1.70386e-07, 0.00681545, 0.0435338
 4140, 158, 0.972429, 1.83248e-07, 0.00732991, 0.043537
 4170, 159, 0.972423, 1.97014e-07, 0.00788056, 0.0435403
 4200, 160, 0.972417, 2.11743e-07, 0.00846972, 0.043544
 4230, 161, 0.97241, 2.27498e-07, 0.00909991, 0.0435478
 4260, 162, 0.972403, 2.44344e-07, 0.00977376, 0.043552
 4290, 163, 0.972396, 2.62351e-07, 0.0104941, 0.0435564
 4320, 164, 0.972387, 2.81594e-07, 0.0112638, 0.0435611
 4350, 165, 0.972379, 3.0215e-07, 0.012086, 0.0435661
 4380, 166, 0.972369, 3.24103e-07, 0.0129641, 0.0435715
 4410, 167, 0.972359, 3.47539e-07, 0.0139016, 0.0435772
 4440, 168, 0.972348, 3.72552e-07, 0.0149021, 0.0435833
 4470, 169, 0.972337, 3.99239e-07, 0.0159696, 0.0435898
 4500, 170, 0.972324, 4.27704e-07, 0.0171082, 0.0435968
 4530, 171, 0.972311, 4.58056e-07, 0.0183222, 0.0436042
 4560, 172, 0.972297, 4.9041e-07, 0.0196164, 0.0436121
 4590, 173, 0.972282, 5.24887e-07, 0.0209955, 0.0436206
 4620, 174, 0.972265, 5.61618e-07, 0.0224647, 0.0436295
 4650, 175, 0.972248, 6.00736e-07, 0.0240294, 0.043639
 4680, 176, 0.972229, 6.42385e-07, 0.0256954, 0.0436492
 4710, 177, 0.972209, 6.86716e-07, 0.0274686, 0.04366
 4740, 178, 0.972188, 7.33888e-07, 0.0293555, 0.0436715
 4770, 179, 0.972165, 7.84068e-07, 0.0313627, 0.0436837
 4800, 180, 0.972141, 8.37433e-07, 0.0334973, 0.0436967
 4830, 181, 0.972115, 8.94169e-07, 0.0357668, 0.0437105
 4860, 182, 0.972087, 9.54472e-07, 0.0381789, 0.0437252
 4890, 183, 0.972058, 1.01855e-06, 0.0407419, 0.0437408
 4920, 184, 0.972026, 1.08661e-06, 0.0434645, 0.0437573
 4950, 185, 0.971993, 1.1589e-06, 0.0463558, 0.0437749
 4980, 186, 0.971957, 1.23564e-06, 0.0494255, 0.0437935
 5010, 187, 0.971918, 1.31709e-06, 0.0526835, 0.0438133
 5040, 188, 0.971878, 1.40352e-06, 0.0561406, 0.0438342
 5070, 189, 0.971834, 1.4952e-06, 0.0598079, 0.0438565
 5100, 190, 0.971788, 1.59243e-06, 0.0636971, 0.04388
 5130, 191, 0.971739, 1.69551e-06, 0.0678205, 0.043905
 5160, 192, 0.971686, 1.80478e-06, 0.0721911, 0.0439315
 5190, 193, 0.97163, 1.92056e-06, 0.0768224, 0.0439595
 5220, 194, 0.971571, 2.04322e-06, 0.0817286, 0.0439893
 5250, 195, 0.971507, 2.17312e-06, 0.0869248, 0.0440207
 5280, 196, 0.97144, 2.31066e-06, 0.0924265, 0.044054
 5310, 197, 0.971369, 2.45626e-06, 0.0982502, 0.0440891
 5340, 198, 0.971293, 2.61033e-06, 0.104413, 0.0441264
 5370, 199, 0.971212, 2.77334e-06, 0.110933, 0.0441658
 5400, 200, 0.971126, 2.94575e-06, 0.11783, 0.0442074
 5430, 201, 0.971035, 3.12806e-06, 0.125122, 0.0442514
 5460, 202, 0.970939, 3.32079e-06, 0.132832, 0.0442979
 5490, 203, 0.970836, 3.52449e-06, 0.140979, 0.044347
 5520, 204, 0.970727, 3.73971e-06, 0.149588, 0.0443989
 5550, 205, 0.970611, 3.96705e-06, 0.158682, 0.0444537
 5580, 206, 0.970489, 4.20714e-06, 0.168286, 0.0445115
 5610, 207, 0.970359, 4.46063e-06, 0.178425, 0.0445726
 5640, 208, 0.970221, 4.72819e-06, 0.189128, 0.0446369
 5670, 209, 0.970075, 5.01053e-06, 0.200421, 0.0447048
 5700, 210, 0.96992, 5.30839e-06, 0.212336, 0.0447765
 5730, 211, 0.969756, 5.62255e-06, 0.224902, 0.044852
 5760, 212, 0.969583, 5.95382e-06, 0.238153, 0.0449316
 5790, 213, 0.969399, 6.30303e-06, 0.252121, 0.0450154
 5820, 214, 0.969204, 6.67106e-06, 0.266843, 0.0451038
 5850, 215, 0.968998, 7.05884e-06, 0.282354, 0.0451968
 5880, 216, 0.968781, 7.46731e-06, 0.298692, 0.0452948
 5910, 217, 0.96855, 7.89747e-06, 0.315899, 0.0453979
 5940, 218, 0.968306, 8.35036e-06, 0.334014, 0.0455064
 5970, 219, 0.968049, 8.82705e-06, 0.353082, 0.0456206
 6000, 220, 0.967777, 9.32867e-06, 0.373147, 0.0457407
 6030, 221, 0.967489, 9.85639e-06, 0.394255, 0.0458669
 6060, 222, 0.967185, 1.04114e-05, 0.416456, 0.0459996
 6090, 223, 0.966864, 1.0995e-05, 0.4398, 0.0461391
 6120, 224, 0.966525, 1.16085e-05, 0.464339, 0.0462857
 6150, 225, 0.966167, 1.22532e-05, 0.490128, 0.0464397
 6180, 226, 0.965789, 1.29306e-05, 0.517223, 0.0466013
 6210, 227, 0.965391, 1.36421e-05, 0.545684, 0.0467711
 6240, 228, 0.964971, 1.43892e-05, 0.57557, 0.0469493
 6270, 229, 0.964527, 1.51736e-05, 0.606945, 0.0471362
 6300, 230, 0.96406, 1.59968e-05, 0.639874, 0.0473323
 6330, 231, 0.963567, 1.68606e-05, 0.674425, 0.047538
 6360, 232, 0.963048, 1.77667e-05, 0.710668, 0.0477535
 6390, 233, 0.962501, 1.87169e-05, 0.748675, 0.0479796
 6420, 234, 0.961924, 1.9713e-05, 0.788521, 0.0482164
 6450, 235, 0.961317, 2.07571e-05, 0.830283, 0.0484644
 6480, 236, 0.960678, 2.1851e-05, 0.874042, 0.0487242
 6510, 237, 0.960006, 2.2997e-05, 0.919878, 0.0489962
 6540, 238, 0.959298, 2.41969e-05, 0.967878, 0.0492808
 6570, 239, 0.958553, 2.54532e-05, 1.01813, 0.0495786
 6600, 240, 0.95777, 2.6768e-05, 1.07072, 0.0498901
 6630, 241, 0.956947, 2.81436e-05, 1.12574, 0.0502158
 6660, 242, 0.956081, 2.95823e-05, 1.18329, 0.0505563
 6690, 243, 0.955171, 3.10867e-05, 1.24347, 0.0509121
 6720, 244, 0.954215, 3.26593e-05, 1.30637, 0.0512837
 6750, 245, 0.953211, 3.43025e-05, 1.3721, 0.0516719
 6780, 246, 0.952156, 3.6019e-05, 1.44076, 0.052077
 6810, 247, 0.951049, 3.78115e-05, 1.51246, 0.0524999
 6840, 248, 0.949886, 3.96827e-05, 1.58731, 0.052941
 6870, 249, 0.948667, 4.16355e-05, 1.66542, 0.0534011
 6900, 250, 0.947388, 4.36725e-05, 1.7469, 0.0538806
 6930, 251, 0.946046, 4.57968e-05, 1.83187, 0.0543804
 6960, 252, 0.944639, 4.80112e-05, 1.92045, 0.0549009
 6990, 253, 0.943164, 5.03188e-05, 2.01275, 0.055443
 7020, 254, 0.941619, 5.27224e-05, 2.1089, 0.0560072
 7050, 255, 0.94, 5.52252e-05, 2.20901, 0.0565942
 7080, 256, 0.938304, 5.78302e-05, 2.31321, 0.0572047
 7110, 257, 0.936529, 6.05404e-05, 2.42162, 0.0578393
 7140, 258, 0.934671, 6.3359e-05, 2.53436, 0.0584988
 7170, 259, 0.932726, 6.62889e-05, 2.65156, 0.0591838
 7200, 260, 0.930692, 6.93333e-05, 2.77333, 0.0598948
 7230, 261, 0.928565, 7.24952e-05, 2.89981, 0.0606326
 7260, 262, 0.926341, 7.57776e-05, 3.0311, 0.0613978
 7290, 263, 0.924017, 7.91834e-05, 3.16734, 0.062191
 7320, 264, 0.921589, 8.27156e-05, 3.30862, 0.0630128
 7350, 265, 0.919053, 8.63769e-05, 3.45507, 0.0638638
 7380, 266, 0.916405, 9.01701e-05, 3.6068, 0.0647445
 7410, 267, 0.913641, 9.40978e-05, 3.76391, 0.0656554
 7440, 268, 0.910758, 9.81626e-05, 3.9265, 0.066597
 7470, 269, 0.90775, 0.000102367, 4.09467, 0.0675696
 7500, 270, 0.904614, 0.000106712, 4.2685, 0.0685739
 7530, 271, 0.901346, 0.000111202, 4.44807, 0.0696099
 7560, 272, 0.897941, 0.000115836, 4.63345, 0.070678
 7590, 273, 0.894394, 0.000120618, 4.82471, 0.0717786
 7620, 274, 0.890702, 0.000125547, 5.0219, 0.0729114
 7650, 275, 0.88686, 0.000130626, 5.22505, 0.0740767
 7680, 276, 0.882863, 0.000135855, 5.4342, 0.0752746
 7710, 277, 0.878707, 0.000141234, 5.64934, 0.0765048
 7740, 278, 0.874387, 0.000146762, 5.87049, 0.0777671
 7770, 279, 0.8699, 0.000152441, 6.09762, 0.0790611
 7800, 280, 0.865239, 0.000158267, 6.33069, 0.0803864
 7830, 281, 0.860402, 0.000164241, 6.56964, 0.0817424
 7860, 282, 0.855383, 0.00017036, 6.81438, 0.0831283
 7890, 283, 0.850179, 0.000176621, 7.06482, 0.0845433
 7920, 284, 0.844785, 0.000183021, 7.32083, 0.0859862
 7950, 285, 0.839196, 0.000189556, 7.58224, 0.087456
 7980, 286, 0.83341, 0.000196222, 7.84888, 0.0889511
 8010, 287, 0.827422, 0.000203013, 8.12053, 0.09047
 8040, 288, 0.821228, 0.000209923, 8.39694, 0.0920108
 8070, 289, 0.814825, 0.000216946, 8.67783, 0.0935717
 8100, 290, 0.80821, 0.000224072, 8.96289, 0.0951502
 8130, 291, 0.80138, 0.000231294, 9.25177, 0.096744
 8160, 292, 0.794331, 0.000238602, 9.54407, 0.0983503
 8190, 293, 0.787063, 0.000245984, 9.83936, 0.0999663
 8220, 294, 0.779572, 0.000253429, 10.1372, 0.101588
 8250, 295, 0.771856, 0.000260924, 10.437, 0.103214
 8280, 296, 0.763916, 0.000268456, 10.7382, 0.104838
 8310, 297, 0.755749, 0.000276008, 11.0403, 0.106457
 8340, 298, 0.747355, 0.000283565, 11.3426, 0.108067
 8370, 299, 0.738735, 0.000291109, 11.6444, 0.109663
 8400, 300, 0.729889, 0.000298621, 11.9448, 0.11124
 8430, 301, 0.720818, 0.000306082, 12.2433, 0.112794
 8460, 302, 0.711525, 0.00031347, 12.5388, 0.114317
 8490, 303, 0.702011, 0.000320764, 12.8306, 0.115806
 8520, 304, 0.69228, 0.00032794, 13.1176, 0.117253
 8550, 305, 0.682336, 0.000334973, 13.3989, 0.118652
 8580, 306, 0.672183, 0.000341839, 13.6735, 0.119998
 8610, 307, 0.661827, 0.00034851, 13.9404, 0.121283
 8640, 308, 0.651275, 0.000354959, 14.1984, 0.1225
 8670, 309, 0.640532, 0.000361158, 14.4463, 0.123642
 8700, 310, 0.629608, 0.000367078, 14.6831, 0.124701
 8730, 311, 0.61851, 0.00037269, 14.9076, 0.125672
 8760, 312, 0.60725, 0.000377963, 15.1185, 0.126545
 8790, 313, 0.595836, 0.000382867, 15.3147, 0.127313
 8820, 314, 0.584282, 0.000387372, 15.4949, 0.127969
 8850, 315, 0.572598, 0.000391447, 15.6579, 0.128506
 8880, 316, 0.560799, 0.000395063, 15.8025, 0.128916
 8910, 317, 0.548899, 0.000398189, 15.9276, 0.129191
 8940, 318, 0.536913, 0.000400797, 16.0319, 0.129326
 8970, 319, 0.524857, 0.000402859, 16.1144, 0.129313
 9000, 320, 0.512747, 0.000404348, 16.1739, 0.129145
 9030, 321, 0.500602, 0.000405239, 16.2096, 0.128818
 9060, 322, 0.488439, 0.000405509, 16.2204, 0.128326
 9090, 323, 0.476278, 0.000405137, 16.2055, 0.127664
 9120, 324, 0.464138, 0.000404103, 16.1641, 0.126828
 9150, 325, 0.452039, 0.000402392, 16.0957, 0.125815
 9180, 326, 0.440001, 0.000399991, 15.9996, 0.124622
 9210, 327, 0.428046, 0.00039689, 15.8756, 0.123247
 9240, 328, 0.416195, 0.000393083, 15.7233, 0.121691
 9270, 329, 0.404468, 0.000388568, 15.5427, 0.119953
 9300, 330, 0.392888, 0.000383347, 15.3339, 0.118035
 9330, 331, 0.381474, 0.000377425, 15.097, 0.11594
 9360, 332, 0.370249, 0.000370814, 14.8326, 0.11367
 9390, 333, 0.359232, 0.000363528, 14.5411, 0.111232
 9420, 334, 0.348444, 0.000355588, 14.2235, 0.108631
 9450, 335, 0.337904, 0.000347018, 13.8807, 0.105875
 9480, 336, 0.327629, 0.000337847, 13.5139, 0.102972
 9510, 337, 0.317638, 0.000328111, 13.1244, 0.0999331
 9540, 338, 0.307948, 0.000317847, 12.7139, 0.096768
 9570, 339, 0.298573, 0.000307098, 12.2839, 0.0934892
 9600, 340, 0.289527, 0.000295912, 11.8365, 0.0901099
 9630, 341, 0.280822, 0.00028434, 11.3736, 0.0866441
 9660, 342, 0.27247, 0.000272435, 10.8974, 0.0831067
 9690, 343, 0.264479, 0.000260256, 10.4102, 0.0795132
 9720, 344, 0.256856, 0.000247862, 9.91447, 0.0758799
 9750, 345, 0.249609, 0.000235314, 9.41256, 0.0722231
 9780, 346, 0.242739, 0.000222676, 8.90703, 0.0685598
 9810, 347, 0.236248, 0.00021001, 8.40041, 0.0649069
 9840, 348, 0.230138, 0.000197381, 7.89524, 0.0612809
 9870, 349, 0.224405, 0.00018485, 7.39401, 0.0576987
 9900, 350, 0.219045, 0.000172479, 6.89918, 0.0541758
 9930, 351, 0.214054, 0.000160327, 6.41309, 0.0507279
 9960, 352, 0.209423, 0.00014845, 5.93798, 0.0473692
 9990, 353, 0.205144, 0.000136899, 5.47596, 0.0441134
 10020, 354, 0.201206, 0.000125724, 5.02894, 0.0409726
 10050, 355, 0.197596, 0.000114967, 4.59868, 0.0379579
 10080, 356, 0.194303, 0.000104668, 4.18671, 0.0350789
 10110, 357, 0.191311, 9.48588e-05, 3.79435, 0.0323435
 10140, 358, 0.188606, 8.5567e-05, 3.42268, 0.0297584
 10170, 359, 0.186172, 7.68135e-05, 3.07254, 0.0273283
 10200, 360, 0.183992, 6.86131e-05, 2.74452, 0.0250564
 10230, 361, 0.18205, 6.09748e-05, 2.43899, 0.0229442
 10260, 362, 0.180328, 5.39013e-05, 2.15605, 0.0209919
 10290, 363, 0.17881, 4.73899e-05, 1.8956, 0.0191978
 10320, 364, 0.177479, 4.14322e-05, 1.65729, 0.0175587
 10350, 365, 0.176319, 3.6015e-05, 1.4406, 0.0160708
 10380, 366, 0.175313, 3.11205e-05, 1.24482, 0.0147284
 10410, 367, 0.174447, 2.67271e-05, 1.06908, 0.0135252
 10440, 368, 0.173705, 2.28097e-05, 0.912387, 0.0124536
 10470, 369, 0.173074, 1.93405e-05, 0.773619, 0.0115059
 10500, 370, 0.17254, 1.62897e-05, 0.651588, 0.0106736
 10530, 371, 0.172092, 1.36261e-05, 0.545044, 0.00994766
 10560, 372, 0.171719, 1.13176e-05, 0.452704, 0.00931922
 10590, 373, 0.17141, 9.33192e-06, 0.373277, 0.0087791
 10620, 374, 0.171156, 7.63711e-06, 0.305484, 0.00831868
 10650, 375, 0.170949, 6.20203e-06, 0.248081, 0.00792917
 10680, 376, 0.170782, 4.99675e-06, 0.19987, 0.00760228
 10710, 377, 0.170648, 3.99292e-06, 0.159717, 0.00733037
 10740, 378, 0.170541, 3.16402e-06, 0.126561, 0.00710598
 10770, 379, 0.170456, 2.48559e-06, 0.0994236, 0.00692237
 10800, 380, 0.17039, 1.93532e-06, 0.0774127, 0.00677365
 10830, 381, 0.170339, 1.49313e-06, 0.0597251, 0.00665425
 10860, 382, 0.1703, 1.14117e-06, 0.0456468, 0.00655925
 10890, 383, 0.17027, 8.63763e-07, 0.0345505, 0.00648433
 10920, 384, 0.170247, 6.47309e-07, 0.0258923, 0.00642613
 10950, 385, 0.17023, 4.8015e-07, 0.019206, 0.00638102
 10980, 386, 0.170218, 3.52425e-07, 0.014097, 0.00634665
 11010, 387, 0.170209, 2.55888e-07, 0.0102355, 0.0063207
 11040, 388, 0.170202, 1.83737e-07, 0.00734947, 0.00630129
 11070, 389, 0.170198, 1.30427e-07, 0.0052171, 0.0062869
 11100, 390, 0.170195, 9.15018e-08, 0.00366007, 0.00627654
 11130, 391, 0.170192, 6.34214e-08, 0.00253685, 0.0062689
 11160, 392, 0.170191, 4.34151e-08, 0.00173661, 0.00626358
 11190, 393, 0.17019, 2.93425e-08, 0.0011737, 0.00625978
 11220, 394, 0.170189, 1.95726e-08, 0.000782904, 0.00625718
 11250, 395, 0.170188, 1.28807e-08, 0.000515229, 0.00625537
 11280, 396, 0.170188, 8.36009e-09, 0.000334404, 0.00625413
 11310, 397, 0.170188, 5.34929e-09, 0.000213972, 0.00625341
 11340, 398, 0.170188, 3.37308e-09, 0.000134923, 0.00625287
 11370, 399, 0.170188, 2.09521e-09, 8.38086e-05, 0.00625253
 11400, 400, 0.170188, 1.28152e-09, 5.12609e-05, 0.00625232
 11430, 401, 0.170188, 7.71504e-10, 3.08601e-05, 0.00625214
 11460, 402, 0.170188, 4.5696e-10, 1.82784e-05, 0.00625206
 11490, 403, 0.170188, 2.66168e-10, 1.06467e-05, 0.00625204
 11520, 404, 0.170187, 1.52398e-10, 6.09591e-06, 0.00625205
 11550, 405, 0.170187, 8.57323e-11, 3.42929e-06, 0.00625194
 11580, 406, 0.170187, 4.73643e-11, 1.89457e-06, 0.00625194
 11610, 407, 0.170187, 2.56855e-11, 1.02742e-06, 0.00625196
 11640, 408, 0.170187, 1.36661e-11, 5.46644e-07, 0.00625189
 11670, 409, 0.170187, 7.13016e-12, 2.85206e-07, 0.00625189
 11700, 410, 0.170187, 3.64611e-12, 1.45844e-07, 0.00625193
 11730, 411, 0.170187, 1.82644e-12, 7.30576e-08, 0.00625192
 11760, 412, 0.170187, 8.95764e-13, 3.58306e-08, 0.00625196
 11790, 413, 0.170187, 4.29886e-13, 1.71954e-08, 0.00625197
 11820, 414, 0.170187, 2.01762e-13, 8.0705e-09, 0.00625198
 11850, 415, 0.170187, 9.25556e-14, 3.70222e-09, 0.00625187
 11880, 416, 0.170187, 4.14748e-14, 1.65899e-09, 0.00625188
 11910, 417, 0.170187, 1.81436e-14, 7.25742e-10, 0.00625198
 11940, 418, 0.170187, 7.7437e-15, 3.09748e-10, 0.00625189
 11970, 419, 0.170187, 3.22247e-15, 1.28899e-10, 0.00625199
 12000, 420, 0.170187, 1.30665e-15, 5.22662e-11, 0.00625197
 12030, 421, 0.170187, 5.15916e-16, 2.06366e-11, 0.00625191
 12060, 422, 0.170187, 1.98221e-16, 7.92882e-12, 0.00625189
 12090, 423, 0.170187, 7.40577e-17, 2.96231e-12, 0.00625199
 12120, 424, 0.170187, 2.68867e-17, 1.07547e-12, 0.00625201
 12150, 425, 0.170187, 9.47841e-18, 3.79136e-13, 0.00625194
 12180, 426, 0.170187, 3.24224e-18, 1.29689e-13, 0.00625188
 12210, 427, 0.170187, 1.07532e-18, 4.30127e-14, 0.00625191
 12240, 428, 0.170187, 3.45524e-19, 1.38209e-14, 0.00625188
 12270, 429, 0.170187, 1.07479e-19, 4.29917e-15, 0.00625191
 12300, 430, 0.170187, 3.23391e-20, 1.29356e-15, 0.00625192
 12330, 431, 0.170187, 9.40438e-21, 3.76175e-16, 0.00625199
 12360, 432, 0.170187, 2.64099e-21, 1.0564e-16, 0.00625186
 12390, 433, 0.170187, 7.1559e-22, 2.86236e-17, 0.00625185
 12420, 434, 0.170187, 1.86914e-22, 7.47656e-18, 0.00625197
 12450, 435, 0.170187, 4.7023e-23, 1.88092e-18, 0.00625194
 12480, 436, 0.170187, 1.13834e-23, 4.55337e-19, 0.0062519
 12510, 437, 0.170187, 2.64925e-24, 1.0597e-19, 0.00625193
 12540, 438, 0.170187, 5.92168e-25, 2.36867e-20, 0.00625187
 12570, 439, 0.170187, 1.27004e-25, 5.08015e-21, 0.00625194
 12600, 440, 0.170187, 2.61099e-26, 1.0444e-21, 0.00625188
 12630, 441, 0.170187, 5.14006e-27, 2.05603e-22, 0.00625193
 12660, 442, 0.170187, 9.67958e-28, 3.87183e-23, 0.00625198
 12690, 443, 0.170187, 1.74184e-28, 6.96737e-24, 0.0062519
 12720, 444, 0.170187, 2.99196e-29, 1.19678e-24, 0.00625193
 12750, 445, 0.170187, 4.90023e-30, 1.96009e-25, 0.00625194
 12780, 446, 0.170187, 7.64368e-31, 3.05747e-26, 0.00625191
 12810, 447, 0.170187, 1.13426e-31, 4.53705e-27, 0.00625193
 12840, 448, 0.170187, 1.59934e-32, 6.39735e-28, 0.00625191
 12870, 449, 0.170187, 2.14023e-33, 8.56093e-29, 0.0062519
 12900, 450, 0.170187, 2.71485e-34, 1.08594e-29, 0.00625196
 12930, 451, 0.170187, 3.26025e-35, 1.3041e-30, 0.00625187
 12960, 452, 0.170187, 3.7019e-36, 1.48076e-31, 0.00625197
 12990, 453, 0.170187, 3.96919e-37, 1.58768e-32, 0.00625195
 13020, 454, 0.170187, 4.01335e-38, 1.60534e-33, 0.006252
 13050, 455, 0.170187, 0.0000000E+000, 1.52867e-34, 0.00625197
 13080, 456, 0.170187, 0.0000000E+000, 1.36899e-35, 0.00625198
 13110, 457, 0.170187, 0.0000000E+000, 1.15138e-36, 0.00625191
 13140, 458, 0.170187, 0.0000000E+000, 9.08124e-38, 0.00625184
 13170, 459, 0.170187, 0.0000000E+000, 0.0000000E+000, 0.00625199
 13200, 460, 0.170187, 0.0000000E+000, 0.0000000E+000, 0.00625192
 13230, 461, 0.170187, 0.0000000E+000, 0.0000000E+000, 0.00625201
 13260, 462, 0.170187, 0.0000000E+000, 0.0000000E+000, 0.00625196
 13290, 463, 0.170187, 0.0000000E+000, 0.0000000E+000, 0.00625191
 13320, 464, 0.170187, 0.0000000E+000, 0.0000000E+000, 0.00625192
 13350, 465, 0.170187, 0.0000000E+000, 0.0000000E+000, 0.00625195
 13380, 466, 0.170187, 0.0000000E+000, 0.0000000E+000, 0.00625192
 13410, 467, 0.170187, 0.0000000E+000, 0.0000000E+000, 0.00625193
 13440, 468, 0.170187, 0.0000000E+000, 0.0000000E+000, 0.00625191
 13470, 469, 0.170187, 0.0000000E+000, 0.0000000E+000, 0.00625188
 13500, 470, 0.170187, 0.0000000E+000, 0.0000000E+000, 0.00625189
 13530, 471, 0.170187, 0.0000000E+000, 0.0000000E+000, 0.00625199
 13560, 472, 0.170187, 0.0000000E+000, 0.0000000E+000, 0.00625192
 13590, 473, 0.170187, 0.0000000E+000, 0.0000000E+000, 0.00625187
 13620, 474, 0.170187, 0.0000000E+000, 0.0000000E+000, 0.00625199
 13650, 475, 0.170187, 0.0000000E+000, 0.0000000E+000, 0.0062519
 13680, 476, 0.170187, 0.0000000E+000, 0.0000000E+000, 0.00625197
 13710, 477, 0.170187, 0.0000000E+000, 0.0000000E+000, 0.00625196
 13740, 478, 0.170187, 0.0000000E+000, 0.0000000E+000, 0.00625194
 13770, 479, 0.170187, 0.0000000E+000, 0.0000000E+000, 0.00625196
 13800, 480, 0.170187, 0.0000000E+000, 0.0000000E+000, 0.00625195
 13830, 481, 0.170187, 0.0000000E+000, 0.0000000E+000, 0.00625192
 13860, 482, 0.170187, 0.0000000E+000, 0.0000000E+000, 0.00625201
 13890, 483, 0.170187, 0.0000000E+000, 0.0000000E+000, 0.00625195
 13920, 484, 0.170187, 0.0000000E+000, 0.0000000E+000, 0.00625184
 13950, 485, 0.170187, 0.0000000E+000, 0.0000000E+000, 0.00625188
 13980, 486, 0.170187, 0.0000000E+000, 0.0000000E+000, 0.00625195
 14010, 487, 0.170187, 0.0000000E+000, 0.0000000E+000, 0.00625194
 14040, 488, 0.170187, 0.0000000E+000, 0.0000000E+000, 0.00625194
 14070, 489, 0.170187, 0.0000000E+000, 0.0000000E+000, 0.00625194
 14100, 490, 0.170187, 0.0000000E+000, 0.0000000E+000, 0.0062519
 14130, 491, 0.170187, 0.0000000E+000, 0.0000000E+000, 0.00625201
 14160, 492, 0.170187, 0.0000000E+000, 0.0000000E+000, 0.006252
 14190, 493, 0.170187, 0.0000000E+000, 0.0000000E+000, 0.00625192
 14220, 494, 0.170187, 0.0000000E+000, 0.0000000E+000, 0.00625191
 14250, 495, 0.170187, 0.0000000E+000, 0.0000000E+000, 0.00625188
 14280, 496, 0.170187, 0.0000000E+000, 0.0000000E+000, 0.00625194
 14310, 497, 0.170187, 0.0000000E+000, 0.0000000E+000, 0.00625196
 14340, 498, 0.170187, 0.0000000E+000, 0.0000000E+000, 0.00625192
 14370, 499, 0.170187, 0.0000000E+000, 0.0000000E+000, 0.00625189
 14400, 500, 0.170187, 0.0000000E+000, 0.0000000E+000, 0.00625188
 14430, 501, 0.170187, 0.0000000E+000, 0.0000000E+000, 0.00625196
 14460, 502, 0.170187, 0.0000000E+000, 0.0000000E+000, 0.00625189
 14490, 503, 0.170187, 0.0000000E+000, 0.0000000E+000, 0.00625195
 14520, 504, 0.170187, 0.0000000E+000, 0.0000000E+000, 0.00625194
 14550, 505, 0.170187, 0.0000000E+000, 0.0000000E+000, 0.00625196
 14580, 506, 0.170187, 0.0000000E+000, 0.0000000E+000, 0.00625193
 14610, 507, 0.170187, 0.0000000E+000, 0.0000000E+000, 0.00625197
 14640, 508, 0.170187, 0.0000000E+000, 0.0000000E+000, 0.00625198
 14670, 509, 0.170187, 0.0000000E+000, 0.0000000E+000, 0.00625199
 14700, 510, 0.170187, 0.0000000E+000, 0.0000000E+000, 0.00625191
 14730, 511, 0.170187, 0.0000000E+000, 0.0000000E+000, 0.00625193
 14760, 512, 0.170187, 0.0000000E+000, 0.0000000E+000, 0.00625202
 14790, 513, 0.170187, 0.0000000E+000, 0.0000000E+000, 0.00625194
 14820, 514, 0.170187, 0.0000000E+000, 0.0000000E+000, 0.00625191
 14850, 515, 0.170187, 0.0000000E+000, 0.0000000E+000, 0.00625191
 14880, 516, 0.170187, 0.0000000E+000, 0.0000000E+000, 0.00625196
 14910, 517, 0.170187, 0.0000000E+000, 0.0000000E+000, 0.00625198
 14940, 518, 0.170187, 0.0000000E+000, 0.0000000E+000, 0.00625192
 14970, 519, 0.170187, 0.0000000E+000, 0.0000000E+000, 0.0062519
 15000, 520, 0.170187, 0.0000000E+000, 0.0000000E+000, 0.00625193
 15030, 521, 0.170187, 0.0000000E+000, 0.0000000E+000, 0.0062519
 15060, 522, 0.170187, 0.0000000E+000, 0.0000000E+000, 0.00625198
 15090, 523, 0.170187, 0.0000000E+000, 0.0000000E+000, 0.00625203
 15120, 524, 0.170187, 0.0000000E+000, 0.0000000E+000, 0.00625197
 15150, 525, 0.170187, 0.0000000E+000, 0.0000000E+000, 0.00625191
 15180, 526, 0.170187, 0.0000000E+000, 0.0000000E+000, 0.00625194
 15210, 527, 0.170187, 0.0000000E+000, 0.0000000E+000, 0.00625193
 15240, 528, 0.170187, 0.0000000E+000, 0.0000000E+000, 0.00625196
 15270, 529, 0.170187, 0.0000000E+000, 0.0000000E+000, 0.0062519
 15300, 530, 0.170187, 0.0000000E+000, 0.0000000E+000, 0.00625187
 15330, 531, 0.170187, 0.0000000E+000, 0.0000000E+000, 0.00625198
 15360, 532, 0.170187, 0.0000000E+000, 0.0000000E+000, 0.00625196
 15390, 533, 0.170187, 0.0000000E+000, 0.0000000E+000, 0.0062519
 15420, 534, 0.170187, 0.0000000E+000, 0.0000000E+000, 0.00625197
 15450, 535, 0.170187, 0.0000000E+000, 0.0000000E+000, 0.00625186
 15480, 536, 0.170187, 0.0000000E+000, 0.0000000E+000, 0.00625199
 15510, 537, 0.170187, 0.0000000E+000, 0.0000000E+000, 0.00625191
 15540, 538, 0.170187, 0.0000000E+000, 0.0000000E+000, 0.00625199
 15570, 539, 0.170187, 0.0000000E+000, 0.0000000E+000, 0.00625192
 15600, 540, 0.170187, 0.0000000E+000, 0.0000000E+000, 0.00625202
 15630, 541, 0.170187, 0.0000000E+000, 0.0000000E+000, 0.00625195
 15660, 542, 0.170187, 0.0000000E+000, 0.0000000E+000, 0.00625186
 15690, 543, 0.170187, 0.0000000E+000, 0.0000000E+000, 0.00625193
 15720, 544, 0.170187, 0.0000000E+000, 0.0000000E+000, 0.00625198
 15750, 545, 0.170187, 0.0000000E+000, 0.0000000E+000, 0.00625193
 15780, 546, 0.170187, 0.0000000E+000, 0.0000000E+000, 0.00625195
 15810, 547, 0.170187, 0.0000000E+000, 0.0000000E+000, 0.00625194
 15840, 548, 0.170187, 0.0000000E+000, 0.0000000E+000, 0.00625191
 15870, 549, 0.170187, 0.0000000E+000, 0.0000000E+000, 0.00625199
 15900, 550, 0.170187, 0.0000000E+000, 0.0000000E+000, 0.00625192
 15930, 551, 0.170187, 0.0000000E+000, 0.0000000E+000, 0.00625197
 15960, 552, 0.170187, 0.0000000E+000, 0.0000000E+000, 0.0062519
 15990, 553, 0.170187, 0.0000000E+000, 0.0000000E+000, 0.00625195
 16020, 554, 0.170187, 0.0000000E+000, 0.0000000E+000, 0.00625197
 16050, 555, 0.170187, 0.0000000E+000, 0.0000000E+000, 0.00625201
 16080, 556, 0.170187, 0.0000000E+000, 0.0000000E+000, 0.00625198
 16110, 557, 0.170187, 0.0000000E+000, 0.0000000E+000, 0.00625195
 16140, 558, 0.170187, 0.0000000E+000, 0.0000000E+000, 0.00625192
 16170, 559, 0.170187, 0.0000000E+000, 0.0000000E+000, 0.00625195
 16200, 560, 0.170187, 0.0000000E+000, 0.0000000E+000, 0.00625198
 16230, 561, 0.170187, 0.0000000E+000, 0.0000000E+000, 0.0062519
 16260, 562, 0.170187, 0.0000000E+000, 0.0000000E+000, 0.00625198
 16290, 563, 0.170187, 0.0000000E+000, 0.0000000E+000, 0.00625195
 16320, 564, 0.170187, 0.0000000E+000, 0.0000000E+000, 0.00625188
 16350, 565, 0.170187, 0.0000000E+000, 0.0000000E+000, 0.00625187
 16380, 566, 0.170187, 0.0000000E+000, 0.0000000E+000, 0.00625194
 16410, 567, 0.170187, 0.0000000E+000, 0.0000000E+000, 0.00625198
 16440, 568, 0.170187, 0.0000000E+000, 0.0000000E+000, 0.00625194
 16470, 569, 0.170187, 0.0000000E+000, 0.0000000E+000, 0.00625186
 16500, 570, 0.170187, 0.0000000E+000, 0.0000000E+000, 0.00625188
 16530, 571, 0.170187, 0.0000000E+000, 0.0000000E+000, 0.00625189
 16560, 572, 0.170187, 0.0000000E+000, 0.0000000E+000, 0.00625196
 16590, 573, 0.170187, 0.0000000E+000, 0.0000000E+000, 0.00625193
 16620, 574, 0.170187, 0.0000000E+000, 0.0000000E+000, 0.00625193
 16650, 575, 0.170187, 0.0000000E+000, 0.0000000E+000, 0.00625192
 16680, 576, 0.170187, 0.0000000E+000, 0.0000000E+000, 0.00625192
 16710, 577, 0.170187, 0.0000000E+000, 0.0000000E+000, 0.00625193
 16740, 578, 0.170187, 0.0000000E+000, 0.0000000E+000, 0.00625196
 16770, 579, 0.170187, 0.0000000E+000, 0.0000000E+000, 0.00625198
 16800, 580, 0.170187, 0.0000000E+000, 0.0000000E+000, 0.00625199
 16830, 581, 0.170187, 0.0000000E+000, 0.0000000E+000, 0.00625196
 16860, 582, 0.170187, 0.0000000E+000, 0.0000000E+000, 0.00625197
 16890, 583, 0.170187, 0.0000000E+000, 0.0000000E+000, 0.00625192
 16920, 584, 0.170187, 0.0000000E+000, 0.0000000E+000, 0.00625191
 16950, 585, 0.170187, 0.0000000E+000, 0.0000000E+000, 0.00625195
 16980, 586, 0.170187, 0.0000000E+000, 0.0000000E+000, 0.00625193
 17010, 587, 0.170187, 0.0000000E+000, 0.0000000E+000, 0.0062519
 17040, 588, 0.170187, 0.0000000E+000, 0.0000000E+000, 0.006252
 17070, 589, 0.170187, 0.0000000E+000, 0.0000000E+000, 0.00625198
 17100, 590, 0.170187, 0.0000000E+000, 0.0000000E+000, 0.00625193
 17130, 591, 0.170187, 0.0000000E+000, 0.0000000E+000, 0.00625189
 17160, 592, 0.170187, 0.0000000E+000, 0.0000000E+000, 0.00625198
 17190, 593, 0.170187, 0.0000000E+000, 0.0000000E+000, 0.0062519
 17220, 594, 0.170187, 0.0000000E+000, 0.0000000E+000, 0.006252
 17250, 595, 0.170187, 0.0000000E+000, 0.0000000E+000, 0.00625199
 17280, 596, 0.170187, 0.0000000E+000, 0.0000000E+000, 0.00625199
 17310, 597, 0.170187, 0.0000000E+000, 0.0000000E+000, 0.00625193
 17340, 598, 0.170187, 0.0000000E+000, 0.0000000E+000, 0.00625192
 17370, 599, 0.170187, 0.0000000E+000, 0.0000000E+000, 0.00625192
 17400, 600, 0.170187, 0.0000000E+000, 0.0000000E+000, 0.00625197
 17430, 601, 0.170187, 0.0000000E+000, 0.0000000E+000, 0.00625189
 17460, 602, 0.170187, 0.0000000E+000, 0.0000000E+000, 0.00625189
 17490, 603, 0.170187, 0.0000000E+000, 0.0000000E+000, 0.00625195
 17520, 604, 0.170187, 0.0000000E+000, 0.0000000E+000, 0.00625194
 17550, 605, 0.170187, 0.0000000E+000, 0.0000000E+000, 0.00625189
 17580, 606, 0.170187, 0.0000000E+000, 0.0000000E+000, 0.00625196
 17610, 607, 0.170187, 0.0000000E+000, 0.0000000E+000, 0.00625193
 17640, 608, 0.170187, 0.0000000E+000, 0.0000000E+000, 0.00625191
 17670, 609, 0.170187, 0.0000000E+000, 0.0000000E+000, 0.00625186
 17700, 610, 0.170187, 0.0000000E+000, 0.0000000E+000, 0.0062519
 17730, 611, 0.170187, 0.0000000E+000, 0.0000000E+000, 0.00625197
 17760, 612, 0.170187, 0.0000000E+000, 0.0000000E+000, 0.00625192
 17790, 613, 0.170187, 0.0000000E+000, 0.0000000E+000, 0.0062519
 17820, 614, 0.170187, 0.0000000E+000, 0.0000000E+000, 0.00625191
 17850, 615, 0.170187, 0.0000000E+000, 0.0000000E+000, 0.0062519
 17880, 616, 0.170187, 0.0000000E+000, 0.0000000E+000, 0.00625194
 17910, 617, 0.170187, 0.0000000E+000, 0.0000000E+000, 0.00625191
 17940, 618, 0.170187, 0.0000000E+000, 0.0000000E+000, 0.00625201
 17970, 619, 0.170187, 0.0000000E+000, 0.0000000E+000, 0.00625196
 18000, 620, 0.170187, 0.0000000E+000, 0.0000000E+000, 0.0062519
 18030, 621, 0.170187, 0.0000000E+000, 0.0000000E+000, 0.00625195
 18060, 622, 0.170187, 0.0000000E+000, 0.0000000E+000, 0.00625183
 18090, 623, 0.170187, 0.0000000E+000, 0.0000000E+000, 0.00625195
 18120, 624, 0.170187, 0.0000000E+000, 0.0000000E+000, 0.0062519
 18150, 625, 0.170187, 0.0000000E+000, 0.0000000E+000, 0.0062519
 18180, 626, 0.170187, 0.0000000E+000, 0.0000000E+000, 0.00625193
 18210, 627, 0.170187, 0.0000000E+000, 0.0000000E+000, 0.00625197
 18240, 628, 0.170187, 0.0000000E+000, 0.0000000E+000, 0.00625199
 18270, 629, 0.170187, 0.0000000E+000, 0.0000000E+000, 0.00625191
 18300, 630, 0.170187, 0.0000000E+000, 0.0000000E+000, 0.00625193
 18330, 631, 0.170187, 0.0000000E+000, 0.0000000E+000, 0.00625201
 18360, 632, 0.170187, 0.0000000E+000, 0.0000000E+000, 0.00625195
 18390, 633, 0.170187, 0.0000000E+000, 0.0000000E+000, 0.0062519
 18420, 634, 0.170187, 0.0000000E+000, 0.0000000E+000, 0.00625198
 18450, 635, 0.170187, 0.0000000E+000, 0.0000000E+000, 0.00625193
 18480, 636, 0.170187, 0.0000000E+000, 0.0000000E+000, 0.00625197
 18510, 637, 0.170187, 0.0000000E+000, 0.0000000E+000, 0.006252
 18540, 638, 0.170187, 0.0000000E+000, 0.0000000E+000, 0.00625194
 18570, 639, 0.170187, 0.0000000E+000, 0.0000000E+000, 0.00625195
 18600, 640, 0.170187, 0.0000000E+000, 0.0000000E+000, 0.00625195
 18630, 641, 0.170187, 0.0000000E+000, 0.0000000E+000, 0.00625187
 18660, 642, 0.170187, 0.0000000E+000, 0.0000000E+000, 0.00625197
 18690, 643, 0.170187, 0.0000000E+000, 0.0000000E+000, 0.00625195
 18720, 644, 0.170187, 0.0000000E+000, 0.0000000E+000, 0.0062519
 18750, 645, 0.170187, 0.0000000E+000, 0.0000000E+000, 0.00625193
 18780, 646, 0.170187, 0.0000000E+000, 0.0000000E+000, 0.00625194
 18810, 647, 0.170187, 0.0000000E+000, 0.0000000E+000, 0.006252
 18840, 648, 0.170187, 0.0000000E+000, 0.0000000E+000, 0.00625193
 18870, 649, 0.170187, 0.0000000E+000, 0.0000000E+000, 0.00625198
 18900, 650, 0.170187, 0.0000000E+000, 0.0000000E+000, 0.00625196
 18930, 651, 0.170187, 0.0000000E+000, 0.0000000E+000, 0.00625192
 18960, 652, 0.170187, 0.0000000E+000, 0.0000000E+000, 0.00625192
 18990, 653, 0.170187, 0.0000000E+000, 0.0000000E+000, 0.00625187
 19020, 654, 0.170187, 0.0000000E+000, 0.0000000E+000, 0.0062519
 19050, 655, 0.170187, 0.0000000E+000, 0.0000000E+000, 0.00625196
 19080, 656, 0.170187, 0.0000000E+000, 0.0000000E+000, 0.00625191
 19110, 657, 0.170187, 0.0000000E+000, 0.0000000E+000, 0.00625204
 19140, 658, 0.170187, 0.0000000E+000, 0.0000000E+000, 0.00625195
 19170, 659, 0.170187, 0.0000000E+000, 0.0000000E+000, 0.00625197
 19200, 660, 0.170187, 0.0000000E+000, 0.0000000E+000, 0.00625195
 19230, 661, 0.170187, 0.0000000E+000, 0.0000000E+000, 0.00625193
 19260, 662, 0.170187, 0.0000000E+000, 0.0000000E+000, 0.00625188
 19290, 663, 0.170187, 0.0000000E+000, 0.0000000E+000, 0.0062519
 19320, 664, 0.170187, 0.0000000E+000, 0.0000000E+000, 0.00625193
 19350, 665, 0.170187, 0.0000000E+000, 0.0000000E+000, 0.00625191
 19380, 666, 0.170187, 0.0000000E+000, 0.0000000E+000, 0.00625191
 19410, 667, 0.170187, 0.0000000E+000, 0.0000000E+000, 0.00625192
 19440, 668, 0.170187, 0.0000000E+000, 0.0000000E+000, 0.00625195
 19470, 669, 0.170187, 0.0000000E+000, 0.0000000E+000, 0.00625195
 19500, 670, 0.170187, 0.0000000E+000, 0.0000000E+000, 0.00625198
 19530, 671, 0.170187, 0.0000000E+000, 0.0000000E+000, 0.00625188
 19560, 672, 0.170187, 0.0000000E+000, 0.0000000E+000, 0.00625189
 19590, 673, 0.170187, 0.0000000E+000, 0.0000000E+000, 0.00625197
 19620, 674, 0.170187, 0.0000000E+000, 0.0000000E+000, 0.00625197
 19650, 675, 0.170187, 0.0000000E+000, 0.0000000E+000, 0.00625195
 19680, 676, 0.170187, 0.0000000E+000, 0.0000000E+000, 0.00625196
 19710, 677, 0.170187, 0.0000000E+000, 0.0000000E+000, 0.0062519
 19740, 678, 0.170187, 0.0000000E+000, 0.0000000E+000, 0.00625192
 19770, 679, 0.170187, 0.0000000E+000, 0.0000000E+000, 0.00625196
 19800, 680, 0.170187, 0.0000000E+000, 0.0000000E+000, 0.00625191
 19830, 681, 0.170187, 0.0000000E+000, 0.0000000E+000, 0.00625192
 19860, 682, 0.170187, 0.0000000E+000, 0.0000000E+000, 0.00625188
 19890, 683, 0.170187, 0.0000000E+000, 0.0000000E+000, 0.00625194
 19920, 684, 0.170187, 0.0000000E+000, 0.0000000E+000, 0.00625197
 19950, 685, 0.170187, 0.0000000E+000, 0.0000000E+000, 0.00625197
 19980, 686, 0.170187, 0.0000000E+000, 0.0000000E+000, 0.00625202
 20010, 687, 0.170187, 0.0000000E+000, 0.0000000E+000, 0.00625193
 20040, 688, 0.170187, 0.0000000E+000, 0.0000000E+000, 0.00625192
 20070, 689, 0.170187, 0.0000000E+000, 0.0000000E+000, 0.00625189
 20100, 690, 0.170187, 0.0000000E+000, 0.0000000E+000, 0.00625188
 20130, 691, 0.170187, 0.0000000E+000, 0.0000000E+000, 0.00625197
 20160, 692, 0.170187, 0.0000000E+000, 0.0000000E+000, 0.00625191
 20190, 693, 0.170187, 0.0000000E+000, 0.0000000E+000, 0.00625193
 20220, 694, 0.170187, 0.0000000E+000, 0.0000000E+000, 0.00625195
 20250, 695, 0.170187, 0.0000000E+000, 0.0000000E+000, 0.00625194
 20280, 696, 0.170187, 0.0000000E+000, 0.0000000E+000, 0.00625195
 20310, 697, 0.170187, 0.0000000E+000, 0.0000000E+000, 0.00625193
 20340, 698, 0.170187, 0.0000000E+000, 0.0000000E+000, 0.00625195
 20370, 699, 0.170187, 0.0000000E+000, 0.0000000E+000, 0.00625196
 20400, 700, 0.170187, 0.0000000E+000, 0.0000000E+000, 0.00625189
 20430, 701, 0.170187, 0.0000000E+000, 0.0000000E+000, 0.00625197
 20460, 702, 0.170187, 0.0000000E+000, 0.0000000E+000, 0.00625195
 20490, 703, 0.170187, 0.0000000E+000, 0.0000000E+000, 0.00625197
 20520, 704, 0.170187, 0.0000000E+000, 0.0000000E+000, 0.00625192
 20550, 705, 0.170187, 0.0000000E+000, 0.0000000E+000, 0.00625196
 20580, 706, 0.170187, 0.0000000E+000, 0.0000000E+000, 0.00625191
 20610, 707, 0.170187, 0.0000000E+000, 0.0000000E+000, 0.00625198
 20640, 708, 0.170187, 0.0000000E+000, 0.0000000E+000, 0.00625194
 20670, 709, 0.170187, 0.0000000E+000, 0.0000000E+000, 0.00625193
 20700, 710, 0.170187, 0.0000000E+000, 0.0000000E+000, 0.00625193
 20730, 711, 0.170187, 0.0000000E+000, 0.0000000E+000, 0.00625198
 20760, 712, 0.170187, 0.0000000E+000, 0.0000000E+000, 0.00625184
 20790, 713, 0.170187, 0.0000000E+000, 0.0000000E+000, 0.00625192
 20820, 714, 0.170187, 0.0000000E+000, 0.0000000E+000, 0.0062519
 20850, 715, 0.170187, 0.0000000E+000, 0.0000000E+000, 0.00625202
 20880, 716, 0.170187, 0.0000000E+000, 0.0000000E+000, 0.00625194
 20910, 717, 0.170187, 0.0000000E+000, 0.0000000E+000, 0.00625189
 20940, 718, 0.170187, 0.0000000E+000, 0.0000000E+000, 0.00625186
 20970, 719, 0.170187, 0.0000000E+000, 0.0000000E+000, 0.00625192
 21000, 720, 0.170187, 0.0000000E+000, 0.0000000E+000, 0.00625195
 21030, 721, 0.170187, 0.0000000E+000, 0.0000000E+000, 0.00625199
 21060, 722, 0.170187, 0.0000000E+000, 0.0000000E+000, 0.00625194
 21090, 723, 0.170187, 0.0000000E+000, 0.0000000E+000, 0.00625187
 21120, 724, 0.170187, 0.0000000E+000, 0.0000000E+000, 0.00625187
 21150, 725, 0.170187, 0.0000000E+000, 0.0000000E+000, 0.00625192
 21180, 726, 0.170187, 0.0000000E+000, 0.0000000E+000, 0.00625186
 21210, 727, 0.170187, 0.0000000E+000, 0.0000000E+000, 0.0062519
 21240, 728, 0.170187, 0.0000000E+000, 0.0000000E+000, 0.00625198
 21270, 729, 0.170187, 0.0000000E+000, 0.0000000E+000, 0.00625191
 21300, 730, 0.170187, 0.0000000E+000, 0.0000000E+000, 0.00625199
 21330, 731, 0.170187, 0.0000000E+000, 0.0000000E+000, 0.00625188
 21360, 732, 0.170187, 0.0000000E+000, 0.0000000E+000, 0.00625195
 21390, 733, 0.170187, 0.0000000E+000, 0.0000000E+000, 0.00625191
 21420, 734, 0.170187, 0.0000000E+000, 0.0000000E+000, 0.00625189
 21450, 735, 0.170187, 0.0000000E+000, 0.0000000E+000, 0.00625199
 21480, 736, 0.170187, 0.0000000E+000, 0.0000000E+000, 0.00625193
 21510, 737, 0.170187, 0.0000000E+000, 0.0000000E+000, 0.00625193
 21540, 738, 0.170187, 0.0000000E+000, 0.0000000E+000, 0.00625195
 21570, 739, 0.170187, 0.0000000E+000, 0.0000000E+000, 0.00625196
 21600, 740, 0.170187, 0.0000000E+000, 0.0000000E+000, 0.00625195
 21630, 741, 0.170187, 0.0000000E+000, 0.0000000E+000, 0.0062519
 21660, 742, 0.170187, 0.0000000E+000, 0.0000000E+000, 0.00625191
 21690, 743, 0.170187, 0.0000000E+000, 0.0000000E+000, 0.00625194
 21720, 744, 0.170187, 0.0000000E+000, 0.0000000E+000, 0.00625192
 21750, 745, 0.170187, 0.0000000E+000, 0.0000000E+000, 0.00625194
 21780, 746, 0.170187, 0.0000000E+000, 0.0000000E+000, 0.00625199
 21810, 747, 0.170187, 0.0000000E+000, 0.0000000E+000, 0.00625196
 21840, 748, 0.170187, 0.0000000E+000, 0.0000000E+000, 0.00625192
 21870, 749, 0.170187, 0.0000000E+000, 0.0000000E+000, 0.00625198
 21900, 750, 0.170187, 0.0000000E+000, 0.0000000E+000, 0.00625192
 21930, 751, 0.170187, 0.0000000E+000, 0.0000000E+000, 0.00625197
 21960, 752, 0.170187, 0.0000000E+000, 0.0000000E+000, 0.00625192
 21990, 753, 0.170187, 0.0000000E+000, 0.0000000E+000, 0.00625187
 22020, 754, 0.170187, 0.0000000E+000, 0.0000000E+000, 0.00625199
 22050, 755, 0.170187, 0.0000000E+000, 0.0000000E+000, 0.00625184
 22080, 756, 0.170187, 0.0000000E+000, 0.0000000E+000, 0.00625187
 22110, 757, 0.170187, 0.0000000E+000, 0.0000000E+000, 0.006252
 22140, 758, 0.170187, 0.0000000E+000, 0.0000000E+000, 0.00625192
 22170, 759, 0.170187, 0.0000000E+000, 0.0000000E+000, 0.00625189
 22200, 760, 0.170187, 0.0000000E+000, 0.0000000E+000, 0.00625204
 22230, 761, 0.170187, 0.0000000E+000, 0.0000000E+000, 0.00625182
 22260, 762, 0.170187, 0.0000000E+000, 0.0000000E+000, 0.00625189
 22290, 763, 0.170187, 0.0000000E+000, 0.0000000E+000, 0.00625196
 22320, 764, 0.170187, 0.0000000E+000, 0.0000000E+000, 0.00625192
 22350, 765, 0.170187, 0.0000000E+000, 0.0000000E+000, 0.00625184
 22380, 766, 0.170187, 0.0000000E+000, 0.0000000E+000, 0.00625201
 22410, 767, 0.170187, 0.0000000E+000, 0.0000000E+000, 0.00625197
 22440, 768, 0.170187, 0.0000000E+000, 0.0000000E+000, 0.00625194
 22470, 769, 0.170187, 0.0000000E+000, 0.0000000E+000, 0.00625199
 22500, 770, 0.170187, 0.0000000E+000, 0.0000000E+000, 0.00625209
 22530, 771, 0.170187, 0.0000000E+000, 0.0000000E+000, 0.00625191
 22560, 772, 0.170187, 0.0000000E+000, 0.0000000E+000, 0.00625205
 22590, 773, 0.170187, 0.0000000E+000, 0.0000000E+000, 0.00625187
 22620, 774, 0.170187, 0.0000000E+000, 0.0000000E+000, 0.00625184
 22650, 775, 0.170187, 0.0000000E+000, 0.0000000E+000, 0.00625196
 22680, 776, 0.170187, 0.0000000E+000, 0.0000000E+000, 0.00625196
 22710, 777, 0.170187, 0.0000000E+000, 0.0000000E+000, 0.00625176
 22740, 778, 0.170187, 0.0000000E+000, 0.0000000E+000, 0.00625189
 22770, 779, 0.170187, 0.0000000E+000, 0.0000000E+000, 0.00625194
 22800, 780, 0.170187, 0.0000000E+000, 0.0000000E+000, 0.00625181
 22830, 781, 0.170187, 0.0000000E+000, 0.0000000E+000, 0.006252
 22860, 782, 0.170187, 0.0000000E+000, 0.0000000E+000, 0.00625183
 22890, 783, 0.170187, 0.0000000E+000, 0.0000000E+000, 0.00625189
 22920, 784, 0.170187, 0.0000000E+000, 0.0000000E+000, 0.00625191
 22950, 785, 0.170187, 0.0000000E+000, 0.0000000E+000, 0.00625193
 22980, 786, 0.170187, 0.0000000E+000, 0.0000000E+000, 0.00625183
 23010, 787, 0.170187, 0.0000000E+000, 0.0000000E+000, 0.0062519
 23040, 788, 0.170187, 0.0000000E+000, 0.0000000E+000, 0.00625187
 23070, 789, 0.170187, 0.0000000E+000, 0.0000000E+000, 0.00625193
 23100, 790, 0.170187, 0.0000000E+000, 0.0000000E+000, 0.00625199
 23130, 791, 0.170187, 0.0000000E+000, 0.0000000E+000, 0.00625193
 23160, 792, 0.170187, 0.0000000E+000, 0.0000000E+000, 0.00625204
 23190, 793, 0.170187, 0.0000000E+000, 0.0000000E+000, 0.00625199
 23220, 794, 0.170187, 0.0000000E+000, 0.0000000E+000, 0.00625201
 23250, 795, 0.170187, 0.0000000E+000, 0.0000000E+000, 0.00625194
 23280, 796, 0.170187, 0.0000000E+000, 0.0000000E+000, 0.00625204
 23310, 797, 0.170187, 0.0000000E+000, 0.0000000E+000, 0.00625193
 23340, 798, 0.170187, 0.0000000E+000, 0.0000000E+000, 0.00625189
 23370, 799, 0.170187, 0.0000000E+000, 0.0000000E+000, 0.00625209
 23400, 800, 0.170187, 0.0000000E+000, 0.0000000E+000, 0.00625193