File: examples/Birch_TGA_Example/Best/birch_tga_1step_20_tga.csv
s,C,g/g,1/s,W/g,W/g
Time,Temp,Mass,MLR,MCC,DSC
 3, 21.0014, 0.9875, 8.76142e-14, 3.50457e-09, 0.441631
 6, 22.0014, 0.9875, 1.02352e-13, 4.09406e-09, 0.441631
 9, 23.0014, 0.9875, 1.19442e-13, 4.77769e-09, 0.441631
 12, 24.0014, 0.9875, 1.39242e-13, 5.56968e-09, 0.441631
 15, 25.0014, 0.9875, 1.62157e-13, 6.48627e-09, 0.441631
 18, 26.0014, 0.9875, 1.88651e-13, 7.54603e-09, 0.441631
 21, 27.0014, 0.9875, 2.19252e-13, 8.77007e-09, 0.441631
 24, 28.0014, 0.9875, 2.54563e-13, 1.01825e-08, 0.441631
 27, 29.0014, 0.9875, 2.95268e-13, 1.18107e-08, 0.441631
 30, 30.0014, 0.9875, 3.42148e-13, 1.36859e-08, 0.441631
 33, 31.0014, 0.9875, 3.96087e-13, 1.58435e-08, 0.441631
 36, 32.0014, 0.9875, 4.58089e-13, 1.83236e-08, 0.441631
 39, 33.0014, 0.9875, 5.29294e-13, 2.11718e-08, 0.441631
 42, 34.0014, 0.9875, 6.10992e-13, 2.44397e-08, 0.441631
 45, 35.0014, 0.9875, 7.04643e-13, 2.81857e-08, 0.441631
 48, 36.0014, 0.9875, 8.119e-13, 3.2476e-08, 0.441631
 51, 37.0014, 0.9875, 9.34628e-13, 3.73851e-08, 0.441631
 54, 38.0014, 0.9875, 1.07494e-12, 4.29974e-08, 0.441631
 57, 39.0014, 0.9875, 1.2352e-12, 4.94079e-08, 0.441631
 60, 40.0014, 0.9875, 1.41809e-12, 5.67238e-08, 0.441631
 63, 41.0014, 0.9875, 1.62664e-12, 6.50657e-08, 0.441631
 66, 42.0014, 0.9875, 1.86424e-12, 7.45695e-08, 0.441631
 69, 43.0014, 0.9875, 2.13469e-12, 8.53877e-08, 0.441631
 72, 44.0014, 0.9875, 2.4423e-12, 9.76919e-08, 0.441631
 75, 45.0014, 0.9875, 2.79186e-12, 1.11675e-07, 0.441631
 78, 46.0014, 0.9875, 3.18879e-12, 1.27552e-07, 0.441631
 81, 47.0014, 0.9875, 3.63912e-12, 1.45565e-07, 0.441631
 84, 48.0014, 0.9875, 4.14964e-12, 1.65986e-07, 0.441631
 87, 49.0014, 0.9875, 4.72792e-12, 1.89117e-07, 0.441631
 90, 50.0014, 0.9875, 5.38244e-12, 2.15298e-07, 0.441631
 93, 51.0014, 0.9875, 6.12267e-12, 2.44907e-07, 0.441631
 96, 52.0014, 0.9875, 6.95918e-12, 2.78367e-07, 0.441631
 99, 53.0014, 0.9875, 7.90377e-12, 3.16151e-07, 0.441631
 102, 54.0014, 0.9875, 8.9696e-12, 3.58784e-07, 0.441631
 105, 55.0014, 0.9875, 1.01713e-11, 4.06852e-07, 0.441631
 108, 56.0014, 0.9875, 1.15252e-11, 4.61008e-07, 0.441631
 111, 57.0014, 0.9875, 1.30494e-11, 5.21977e-07, 0.441631
 114, 58.0014, 0.9875, 1.47642e-11, 5.90566e-07, 0.441631
 117, 59.0014, 0.9875, 1.66918e-11, 6.67672e-07, 0.441631
 120, 60.0014, 0.9875, 1.88572e-11, 7.54288e-07, 0.441631
 123, 61.0014, 0.9875, 2.1288e-11, 8.5152e-07, 0.441631
 126, 62.0014, 0.9875, 2.40147e-11, 9.6059e-07, 0.441631
 129, 63.0014, 0.9875, 2.70713e-11, 1.08285e-06, 0.441631
 132, 64.0014, 0.9875, 3.04953e-11, 1.21981e-06, 0.441631
 135, 65.0014, 0.9875, 3.43281e-11, 1.37312e-06, 0.441631
 138, 66.0014, 0.9875, 3.86157e-11, 1.54463e-06, 0.441631
 141, 67.0014, 0.9875, 4.34087e-11, 1.73635e-06, 0.441631
 144, 68.0014, 0.9875, 4.87632e-11, 1.95053e-06, 0.441631
 147, 69.0014, 0.9875, 5.4741e-11, 2.18964e-06, 0.441631
 150, 70.0014, 0.9875, 6.14101e-11, 2.45641e-06, 0.441631
 153, 71.0014, 0.9875, 6.88458e-11, 2.75383e-06, 0.441631
 156, 72.0014, 0.9875, 7.71307e-11, 3.08523e-06, 0.441631
 159, 73.0014, 0.9875, 8.63558e-11, 3.45423e-06, 0.441631
 162, 74.0014, 0.9875, 9.66215e-11, 3.86486e-06, 0.441631
 165, 75.0014, 0.9875, 1.08038e-10, 4.32151e-06, 0.441631
 168, 76.0014, 0.9875, 1.20726e-10, 4.82902e-06, 0.441631
 171, 77.0014, 0.9875, 1.34818e-10, 5.39272e-06, 0.441631
 174, 78.0014, 0.9875, 1.50461e-10, 6.01842e-06, 0.441631
 177, 79.0014, 0.9875, 1.67814e-10, 6.71255e-06, 0.441631
 180, 80.0014, 0.9875, 1.87052e-10, 7.4821e-06, 0.441631
 183, 81.0014, 0.9875, 2.08369e-10, 8.33476e-06, 0.441631
 186, 82.0014, 0.9875, 2.31974e-10, 9.27896e-06, 0.441631
 189, 83.0014, 0.9875, 2.58097e-10, 1.03239e-05, 0.441631
 192, 84.0014, 0.9875, 2.86991e-10, 1.14796e-05, 0.441631
 195, 85.0014, 0.9875, 3.1893e-10, 1.27572e-05, 0.441631
 198, 86.0014, 0.9875, 3.54215e-10, 1.41686e-05, 0.441631
 201, 87.0014, 0.9875, 3.93175e-10, 1.5727e-05, 0.441631
 204, 88.0014, 0.9875, 4.36169e-10, 1.74467e-05, 0.441631
 207, 89.0014, 0.9875, 4.83586e-10, 1.93434e-05, 0.441631
 210, 90.0014, 0.9875, 5.35853e-10, 2.14341e-05, 0.441631
 213, 91.0014, 0.9875, 5.93435e-10, 2.37374e-05, 0.441631
 216, 92.0014, 0.9875, 6.56838e-10, 2.62735e-05, 0.441631
 219, 93.0014, 0.9875, 7.26611e-10, 2.90645e-05, 0.441631
 222, 94.0014, 0.9875, 8.03355e-10, 3.21342e-05, 0.441631
 225, 95.0014, 0.9875, 8.87719e-10, 3.55088e-05, 0.441631
 228, 96.0014, 0.9875, 9.80412e-10, 3.92165e-05, 0.441631
 231, 97.0014, 0.9875, 1.0822e-09, 4.32881e-05, 0.441631
 234, 98.0014, 0.9875, 1.19393e-09, 4.77571e-05, 0.441631
 237, 99.0014, 0.9875, 1.31649e-09, 5.26596e-05, 0.441631
 240, 100.001, 0.9875, 1.45087e-09, 5.8035e-05, 0.441631
 243, 101.001, 0.9875, 1.59815e-09, 6.39258e-05, 0.441631
 246, 102.001, 0.9875, 1.75946e-09, 7.03784e-05, 0.441631
 249, 103.001, 0.9875, 1.93606e-09, 7.74426e-05, 0.441631
 252, 104.001, 0.9875, 2.12932e-09, 8.51727e-05, 0.441631
 255, 105.001, 0.9875, 2.34068e-09, 9.36272e-05, 0.441631
 258, 106.001, 0.9875, 2.57174e-09, 0.00010287, 0.441632
 261, 107.001, 0.9875, 2.82421e-09, 0.000112968, 0.441632
 264, 108.001, 0.9875, 3.09994e-09, 0.000123998, 0.441632
 267, 109.001, 0.9875, 3.40094e-09, 0.000136037, 0.441632
 270, 110.001, 0.9875, 3.72935e-09, 0.000149174, 0.441632
 273, 111.001, 0.9875, 4.08752e-09, 0.000163501, 0.441632
 276, 112.001, 0.9875, 4.47795e-09, 0.000179118, 0.441632
 279, 113.001, 0.9875, 4.90336e-09, 0.000196134, 0.441632
 282, 114.001, 0.9875, 5.36666e-09, 0.000214666, 0.441632
 285, 115.001, 0.9875, 5.87101e-09, 0.00023484, 0.441632
 288, 116.001, 0.9875, 6.41979e-09, 0.000256792, 0.441632
 291, 117.001, 0.9875, 7.01665e-09, 0.000280666, 0.441633
 294, 118.001, 0.9875, 7.66552e-09, 0.000306621, 0.441633
 297, 119.001, 0.9875, 8.37062e-09, 0.000334825, 0.441633
 300, 120.001, 0.9875, 9.13648e-09, 0.000365459, 0.441633
 303, 121.001, 0.9875, 9.96799e-09, 0.00039872, 0.441633
 306, 122.001, 0.9875, 1.08704e-08, 0.000434815, 0.441634
 309, 123.001, 0.9875, 1.18493e-08, 0.000473971, 0.441634
 312, 124.001, 0.9875, 1.29107e-08, 0.000516429, 0.441634
 315, 125.001, 0.9875, 1.40612e-08, 0.000562447, 0.441634
 318, 126.001, 0.987499, 1.53076e-08, 0.000612304, 0.441635
 321, 127.001, 0.987499, 1.66574e-08, 0.000666298, 0.441635
 324, 128.001, 0.987499, 1.81187e-08, 0.000724747, 0.441635
 327, 129.001, 0.987499, 1.96999e-08, 0.000787995, 0.441636
 330, 130.001, 0.987499, 2.14101e-08, 0.000856406, 0.441636
 333, 131.001, 0.987499, 2.32593e-08, 0.000930373, 0.441637
 336, 132.001, 0.987499, 2.52579e-08, 0.00101031, 0.441637
 339, 133.001, 0.987499, 2.7417e-08, 0.00109668, 0.441638
 342, 134.001, 0.987499, 2.97488e-08, 0.00118995, 0.441638
 345, 135.001, 0.987499, 3.22659e-08, 0.00129064, 0.441639
 348, 136.001, 0.987499, 3.49821e-08, 0.00139928, 0.441639
 351, 137.001, 0.987499, 3.7912e-08, 0.00151648, 0.44164
 354, 138.001, 0.987499, 4.10713e-08, 0.00164285, 0.441641
 357, 139.001, 0.987498, 4.44765e-08, 0.00177906, 0.441642
 360, 140.001, 0.987498, 4.81455e-08, 0.00192582, 0.441643
 363, 141.001, 0.987498, 5.20973e-08, 0.00208389, 0.441644
 366, 142.001, 0.987498, 5.63519e-08, 0.00225408, 0.441645
 369, 143.001, 0.987498, 6.09311e-08, 0.00243724, 0.441646
 372, 144.001, 0.987498, 6.58576e-08, 0.0026343, 0.441647
 375, 145.001, 0.987497, 7.1156e-08, 0.00284624, 0.441648
 378, 146.001, 0.987497, 7.68523e-08, 0.00307409, 0.44165
 381, 147.001, 0.987497, 8.29742e-08, 0.00331897, 0.441651
 384, 148.001, 0.987497, 8.95512e-08, 0.00358205, 0.441653
 387, 149.001, 0.987496, 9.66145e-08, 0.00386458, 0.441654
 390, 150.001, 0.987496, 1.04198e-07, 0.0041679, 0.441656
 393, 151.001, 0.987496, 1.12336e-07, 0.00449343, 0.441658
 396, 152.001, 0.987495, 1.21067e-07, 0.00484267, 0.44166
 399, 153.001, 0.987495, 1.30431e-07, 0.00521722, 0.441663
 402, 154.001, 0.987495, 1.4047e-07, 0.00561878, 0.441665
 405, 155.001, 0.987494, 1.51229e-07, 0.00604915, 0.441668
 408, 156.001, 0.987494, 1.62756e-07, 0.00651025, 0.441671
 411, 157.001, 0.987493, 1.75102e-07, 0.0070041, 0.441673
 414, 158.001, 0.987493, 1.88321e-07, 0.00753285, 0.441677
 417, 159.001, 0.987492, 2.0247e-07, 0.00809879, 0.44168
 420, 160.001, 0.987491, 2.17609e-07, 0.00870434, 0.441684
 423, 161.001, 0.987491, 2.33802e-07, 0.00935206, 0.441688
 426, 162.001, 0.98749, 2.51117e-07, 0.0100447, 0.441692
 429, 163.001, 0.987489, 2.69626e-07, 0.010785, 0.441696
 432, 164.001, 0.987488, 2.89405e-07, 0.0115762, 0.441701
 435, 165.001, 0.987488, 3.10534e-07, 0.0124214, 0.441706
 438, 166.001, 0.987487, 3.331e-07, 0.013324, 0.441712
 441, 167.001, 0.987486, 3.57191e-07, 0.0142876, 0.441718
 444, 168.001, 0.987484, 3.82903e-07, 0.0153161, 0.441724
 447, 169.001, 0.987483, 4.10338e-07, 0.0164135, 0.44173
 450, 170.001, 0.987482, 4.396e-07, 0.017584, 0.441737
 453, 171.001, 0.987481, 4.70803e-07, 0.0188321, 0.441745
 456, 172.001, 0.987479, 5.04066e-07, 0.0201626, 0.441753
 459, 173.001, 0.987478, 5.39513e-07, 0.0215805, 0.441762
 462, 174.001, 0.987476, 5.77277e-07, 0.0230911, 0.441771
 465, 175.001, 0.987474, 6.17499e-07, 0.0247, 0.44178
 468, 176.001, 0.987472, 6.60324e-07, 0.026413, 0.441791
 471, 177.001, 0.98747, 7.05909e-07, 0.0282364, 0.441802
 474, 178.001, 0.987468, 7.54418e-07, 0.0301767, 0.441813
 477, 179.001, 0.987466, 8.06023e-07, 0.0322409, 0.441826
 480, 180.001, 0.987463, 8.60906e-07, 0.0344363, 0.441839
 483, 181.001, 0.98746, 9.1926e-07, 0.0367704, 0.441853
 486, 182.001, 0.987458, 9.81286e-07, 0.0392514, 0.441868
 489, 183.001, 0.987455, 1.0472e-06, 0.0418879, 0.441884
 492, 184.001, 0.987451, 1.11722e-06, 0.0446886, 0.4419
 495, 185.001, 0.987448, 1.19158e-06, 0.0476632, 0.441918
 498, 186.001, 0.987444, 1.27054e-06, 0.0508215, 0.441937
 501, 187.001, 0.98744, 1.35435e-06, 0.054174, 0.441957
 504, 188.001, 0.987436, 1.44329e-06, 0.0577315, 0.441979
 507, 189.001, 0.987432, 1.53764e-06, 0.0615058, 0.442001
 510, 190.001, 0.987427, 1.63772e-06, 0.0655088, 0.442025
 513, 191.001, 0.987422, 1.74383e-06, 0.0697534, 0.44205
 516, 192.001, 0.987416, 1.85632e-06, 0.0742529, 0.442077
 519, 193.001, 0.987411, 1.97554e-06, 0.0790215, 0.442106
 522, 194.001, 0.987404, 2.10185e-06, 0.0840738, 0.442136
 525, 195.001, 0.987398, 2.23564e-06, 0.0894255, 0.442168
 528, 196.001, 0.987391, 2.37732e-06, 0.0950927, 0.442202
 531, 197.001, 0.987384, 2.52732e-06, 0.101093, 0.442238
 534, 198.001, 0.987376, 2.68608e-06, 0.107443, 0.442276
 537, 199.001, 0.987368, 2.85408e-06, 0.114163, 0.442316
 540, 200.001, 0.987359, 3.0318e-06, 0.121272, 0.442358
 543, 201.001, 0.987349, 3.21977e-06, 0.128791, 0.442403
 546, 202.001, 0.987339, 3.41852e-06, 0.136741, 0.44245
 549, 203.001, 0.987329, 3.62863e-06, 0.145145, 0.4425
 552, 204.001, 0.987318, 3.85069e-06, 0.154027, 0.442553
 555, 205.001, 0.987306, 4.08531e-06, 0.163412, 0.442609
 558, 206.001, 0.987293, 4.33316e-06, 0.173326, 0.442668
 561, 207.001, 0.98728, 4.59491e-06, 0.183796, 0.44273
 564, 208.001, 0.987265, 4.87128e-06, 0.194851, 0.442796
 567, 209.001, 0.98725, 5.16301e-06, 0.206521, 0.442865
 570, 210.001, 0.987234, 5.4709e-06, 0.218836, 0.442938
 573, 211.001, 0.987218, 5.79575e-06, 0.23183, 0.443015
 576, 212.001, 0.9872, 6.13842e-06, 0.245537, 0.443097
 579, 213.001, 0.987181, 6.49981e-06, 0.259992, 0.443182
 582, 214.001, 0.987161, 6.88084e-06, 0.275234, 0.443273
 585, 215.001, 0.987139, 7.2825e-06, 0.2913, 0.443368
 588, 216.001, 0.987117, 7.70581e-06, 0.308232, 0.443468
 591, 217.001, 0.987093, 8.15183e-06, 0.326073, 0.443574
 594, 218.001, 0.987068, 8.62168e-06, 0.344867, 0.443685
 597, 219.001, 0.987041, 9.11651e-06, 0.36466, 0.443802
 600, 220.001, 0.987013, 9.63754e-06, 0.385502, 0.443925
 603, 221.001, 0.986984, 1.0186e-05, 0.407442, 0.444055
 606, 222.001, 0.986952, 1.07633e-05, 0.430533, 0.444191
 609, 223.001, 0.986919, 1.13708e-05, 0.454831, 0.444334
 612, 224.001, 0.986884, 1.20098e-05, 0.480393, 0.444485
 615, 225.001, 0.986847, 1.2682e-05, 0.507279, 0.444644
 618, 226.001, 0.986808, 1.33888e-05, 0.535551, 0.44481
 621, 227.001, 0.986766, 1.41319e-05, 0.565275, 0.444986
 624, 228.001, 0.986723, 1.49129e-05, 0.596518, 0.44517
 627, 229.001, 0.986677, 1.57338e-05, 0.629351, 0.445363
 630, 230.001, 0.986628, 1.65962e-05, 0.663847, 0.445566
 633, 231.001, 0.986577, 1.75021e-05, 0.700084, 0.445779
 636, 232.001, 0.986523, 1.84535e-05, 0.738141, 0.446003
 639, 233.001, 0.986467, 1.94525e-05, 0.778101, 0.446238
 642, 234.001, 0.986407, 2.05013e-05, 0.82005, 0.446484
 645, 235.001, 0.986343, 2.1602e-05, 0.864079, 0.446743
 648, 236.001, 0.986277, 2.2757e-05, 0.910281, 0.447014
 651, 237.001, 0.986207, 2.39688e-05, 0.958752, 0.447298
 654, 238.001, 0.986133, 2.52399e-05, 1.0096, 0.447596
 657, 239.001, 0.986055, 2.65729e-05, 1.06291, 0.447909
 660, 240.001, 0.985974, 2.79705e-05, 1.11882, 0.448236
 663, 241.001, 0.985887, 2.94356e-05, 1.17742, 0.448579
 666, 242.001, 0.985797, 3.09711e-05, 1.23884, 0.448939
 669, 243.001, 0.985702, 3.25801e-05, 1.3032, 0.449315
 672, 244.001, 0.985601, 3.42657e-05, 1.37063, 0.449709
 675, 245.001, 0.985496, 3.60313e-05, 1.44125, 0.450122
 678, 246.001, 0.985385, 3.78803e-05, 1.51521, 0.450554
 681, 247.001, 0.985268, 3.98162e-05, 1.59265, 0.451006
 684, 248.001, 0.985146, 4.18427e-05, 1.67371, 0.451479
 687, 249.001, 0.985017, 4.39636e-05, 1.75854, 0.451974
 690, 250.001, 0.984882, 4.61829e-05, 1.84732, 0.452492
 693, 251.001, 0.98474, 4.85047e-05, 1.94019, 0.453033
 696, 252.001, 0.984591, 5.09332e-05, 2.03733, 0.453599
 699, 253.001, 0.984434, 5.34728e-05, 2.13891, 0.45419
 702, 254.001, 0.98427, 5.61282e-05, 2.24513, 0.454808
 705, 255.001, 0.984097, 5.89039e-05, 2.35616, 0.455454
 708, 256.001, 0.983916, 6.1805e-05, 2.4722, 0.456128
 711, 257.001, 0.983726, 6.48364e-05, 2.59346, 0.456833
 714, 258.001, 0.983527, 6.80034e-05, 2.72014, 0.457569
 717, 259.001, 0.983318, 7.13114e-05, 2.85246, 0.458337
 720, 260.001, 0.983099, 7.4766e-05, 2.99064, 0.459138
 723, 261.001, 0.982869, 7.8373e-05, 3.13492, 0.459975
 726, 262.001, 0.982629, 8.21383e-05, 3.28553, 0.460848
 729, 263.001, 0.982376, 8.60682e-05, 3.44273, 0.461758
 732, 264.001, 0.982112, 9.01689e-05, 3.60676, 0.462708
 735, 265.001, 0.981835, 9.44471e-05, 3.77788, 0.463698
 738, 266.001, 0.981545, 9.89095e-05, 3.95638, 0.46473
 741, 267.001, 0.981241, 0.000103563, 4.14253, 0.465806
 744, 268.001, 0.980924, 0.000108415, 4.33662, 0.466927
 747, 269.001, 0.980591, 0.000113474, 4.53894, 0.468095
 750, 270.001, 0.980242, 0.000118745, 4.74981, 0.469312
 753, 271.001, 0.979878, 0.000124239, 4.96954, 0.47058
 756, 272.001, 0.979497, 0.000129961, 5.19846, 0.471899
 759, 273.001, 0.979098, 0.000135922, 5.43689, 0.473273
 762, 274.001, 0.978681, 0.00014213, 5.68519, 0.474702
 765, 275.001, 0.978245, 0.000148593, 5.94371, 0.47619
 768, 276.001, 0.977789, 0.00015532, 6.21282, 0.477738
 771, 277.001, 0.977313, 0.000162322, 6.49288, 0.479347
 774, 278.001, 0.976815, 0.000169607, 6.78429, 0.481021
 777, 279.001, 0.976295, 0.000177186, 7.08744, 0.482762
 780, 280.001, 0.975751, 0.000185068, 7.40273, 0.48457
 783, 281.001, 0.975184, 0.000193264, 7.73058, 0.48645
 786, 282.001, 0.974591, 0.000201785, 8.07142, 0.488403
 789, 283.001, 0.973973, 0.000210642, 8.42568, 0.490432
 792, 284.001, 0.973327, 0.000219845, 8.79381, 0.492539
 795, 285.001, 0.972653, 0.000229407, 9.17626, 0.494727
 798, 286.001, 0.97195, 0.000239338, 9.57351, 0.496997
 801, 287.001, 0.971217, 0.000249651, 9.98604, 0.499354
 804, 288.001, 0.970452, 0.000260358, 10.4143, 0.501798
 807, 289.001, 0.969654, 0.000271472, 10.8589, 0.504334
 810, 290.001, 0.968822, 0.000283004, 11.3202, 0.506964
 813, 291.001, 0.967955, 0.000294969, 11.7988, 0.50969
 816, 292.001, 0.967052, 0.000307379, 12.2952, 0.512516
 819, 293.001, 0.96611, 0.000320248, 12.8099, 0.515444
 822, 294.001, 0.96513, 0.00033359, 13.3436, 0.518478
 825, 295.001, 0.964108, 0.000347417, 13.8967, 0.521619
 828, 296.001, 0.963045, 0.000361745, 14.4698, 0.524872
 831, 297.001, 0.961937, 0.000376587, 15.0635, 0.528239
 834, 298.001, 0.960784, 0.000391958, 15.6783, 0.531724
 837, 299.001, 0.959585, 0.000407872, 16.3149, 0.535328
 840, 300.001, 0.958336, 0.000424344, 16.9738, 0.539057
 843, 301.001, 0.957038, 0.00044139, 17.6556, 0.542911
 846, 302.001, 0.955687, 0.000459023, 18.3609, 0.546895
 849, 303.001, 0.954283, 0.000477259, 19.0904, 0.551012
 852, 304.001, 0.952823, 0.000496113, 19.8445, 0.555265
 855, 305.001, 0.951306, 0.0005156, 20.624, 0.559656
 858, 306.001, 0.949729, 0.000535735, 21.4294, 0.56419
 861, 307.001, 0.94809, 0.000556534, 22.2613, 0.568868
 864, 308.001, 0.946388, 0.00057801, 23.1204, 0.573694
 867, 309.001, 0.944621, 0.00060018, 24.0072, 0.578672
 870, 310.001, 0.942786, 0.000623058, 24.9223, 0.583802
 873, 311.001, 0.940882, 0.000646658, 25.8663, 0.58909
 876, 312.001, 0.938906, 0.000670995, 26.8398, 0.594537
 879, 313.001, 0.936855, 0.000696083, 27.8433, 0.600145
 882, 314.001, 0.934728, 0.000721936, 28.8774, 0.605919
 885, 315.001, 0.932522, 0.000748566, 29.9427, 0.611859
 888, 316.001, 0.930236, 0.000775988, 31.0395, 0.617968
 891, 317.001, 0.927865, 0.000804213, 32.1685, 0.624249
 894, 318.001, 0.925409, 0.000833254, 33.3302, 0.630704
 897, 319.001, 0.922865, 0.000863121, 34.5248, 0.637333
 900, 320.001, 0.920229, 0.000893825, 35.753, 0.644139
 903, 321.001, 0.917501, 0.000925376, 37.015, 0.651123
 906, 322.001, 0.914676, 0.000957783, 38.3113, 0.658287
 909, 323.001, 0.911753, 0.000991053, 39.6421, 0.66563
 912, 324.001, 0.908728, 0.00102519, 41.0077, 0.673155
 915, 325.001, 0.9056, 0.00106021, 42.4084, 0.68086
 918, 326.001, 0.902366, 0.00109611, 43.8443, 0.688746
 921, 327.001, 0.899022, 0.00113289, 45.3155, 0.696813
 924, 328.001, 0.895567, 0.00117055, 46.8222, 0.705059
 927, 329.001, 0.891998, 0.00120911, 48.3643, 0.713485
 930, 330.001, 0.888311, 0.00124854, 49.9417, 0.722087
 933, 331.001, 0.884505, 0.00128886, 51.5544, 0.730863
 936, 332.001, 0.880577, 0.00133005, 53.2021, 0.739812
 939, 333.001, 0.876524, 0.00137211, 54.8845, 0.748931
 942, 334.001, 0.872343, 0.00141503, 56.6013, 0.758214
 945, 335.001, 0.868032, 0.0014588, 58.3519, 0.767659
 948, 336.001, 0.863589, 0.0015034, 60.1358, 0.77726
 951, 337.001, 0.859011, 0.00154881, 61.9524, 0.787012
 954, 338.001, 0.854295, 0.00159502, 63.8008, 0.796908
 957, 339.001, 0.849439, 0.001642, 65.6801, 0.806942
 960, 340.001, 0.844442, 0.00168974, 67.5894, 0.817105
 963, 341.001, 0.8393, 0.00173819, 69.5275, 0.82739
 966, 342.001, 0.834011, 0.00178733, 71.4931, 0.837787
 969, 343.001, 0.828574, 0.00183712, 73.4848, 0.848286
 972, 344.001, 0.822987, 0.00188752, 75.501, 0.858875
 975, 345.001, 0.817248, 0.0019385, 77.54, 0.869544
 978, 346.001, 0.811355, 0.00199, 79.6001, 0.880278
 981, 347.001, 0.805307, 0.00204198, 81.679, 0.891064
 984, 348.001, 0.799103, 0.00209437, 83.7748, 0.901888
 987, 349.001, 0.79274, 0.00214712, 85.8849, 0.912732
 990, 350.001, 0.786219, 0.00220017, 88.007, 0.923581
 993, 351.001, 0.779538, 0.00225346, 90.1382, 0.934416
 996, 352.001, 0.772698, 0.00230689, 92.2758, 0.945218
 999, 353.001, 0.765696, 0.00236041, 94.4165, 0.955967
 1002, 354.001, 0.758535, 0.00241393, 96.5573, 0.966641
 1005, 355.001, 0.751212, 0.00246736, 98.6946, 0.977219
 1008, 356.001, 0.74373, 0.00252062, 100.825, 0.987676
 1011, 357.001, 0.736088, 0.0025736, 102.944, 0.997989
 1014, 358.001, 0.728288, 0.00262621, 105.049, 1.00813
 1017, 359.001, 0.720331, 0.00267835, 107.134, 1.01807
 1020, 360.001, 0.712218, 0.00272989, 109.196, 1.02779
 1023, 361.001, 0.703952, 0.00278074, 111.23, 1.03726
 1026, 362.001, 0.695534, 0.00283077, 113.231, 1.04644
 1029, 363.001, 0.686968, 0.00287985, 115.194, 1.05531
 1032, 364.001, 0.678256, 0.00292788, 117.115, 1.06383
 1035, 365.001, 0.669401, 0.0029747, 118.988, 1.07197
 1038, 366.001, 0.660408, 0.0030202, 120.808, 1.0797
 1041, 367.001, 0.651281, 0.00306423, 122.569, 1.08698
 1044, 368.001, 0.642024, 0.00310665, 124.266, 1.09379
 1047, 369.001, 0.632642, 0.00314733, 125.893, 1.10008
 1050, 370.001, 0.623142, 0.00318612, 127.445, 1.10582
 1053, 371.001, 0.613527, 0.00322287, 128.915, 1.11098
 1056, 372.001, 0.603806, 0.00325745, 130.298, 1.11552
 1059, 373.001, 0.593985, 0.0032897, 131.588, 1.11941
 1062, 374.001, 0.58407, 0.00331948, 132.779, 1.1226
 1065, 375.001, 0.57407, 0.00334664, 133.866, 1.12508
 1068, 376.001, 0.563993, 0.00337105, 134.842, 1.12679
 1071, 377.001, 0.553846, 0.00339255, 135.702, 1.12772
 1074, 378.001, 0.54364, 0.00341103, 136.441, 1.12783
 1077, 379.001, 0.533383, 0.00342633, 137.053, 1.12708
 1080, 380.001, 0.523085, 0.00343834, 137.533, 1.12546
 1083, 381.001, 0.512757, 0.00344693, 137.877, 1.12292
 1086, 382.001, 0.502407, 0.00345199, 138.079, 1.11946
 1089, 383.001, 0.492048, 0.00345341, 138.136, 1.11504
 1092, 384.001, 0.481691, 0.00345109, 138.044, 1.10964
 1095, 385.001, 0.471346, 0.00344495, 137.798, 1.10325
 1098, 386.001, 0.461025, 0.0034349, 137.396, 1.09585
 1101, 387.001, 0.45074, 0.00342089, 136.836, 1.08743
 1104, 388.001, 0.440504, 0.00340285, 136.114, 1.07798
 1107, 389.001, 0.430327, 0.00338075, 135.23, 1.06749
 1110, 390.001, 0.420224, 0.00335456, 134.182, 1.05597
 1113, 391.001, 0.410205, 0.00332427, 132.971, 1.04342
 1116, 392.001, 0.400282, 0.00328989, 131.596, 1.02985
 1119, 393.001, 0.39047, 0.00325144, 130.058, 1.01526
 1122, 394.001, 0.380778, 0.00320896, 128.358, 0.999669
 1125, 395.001, 0.37122, 0.00316251, 126.5, 0.983105
 1128, 396.001, 0.361808, 0.00311215, 124.486, 0.965588
 1131, 397.001, 0.352552, 0.00305799, 122.32, 0.947149
 1134, 398.001, 0.343464, 0.00300014, 120.006, 0.927822
 1137, 399.001, 0.334555, 0.00293873, 117.549, 0.907646
 1140, 400.001, 0.325836, 0.0028739, 114.956, 0.886666
 1143, 401.001, 0.317315, 0.00280583, 112.233, 0.86493
 1146, 402.001, 0.309004, 0.00273469, 109.388, 0.842489
 1149, 403.001, 0.300911, 0.0026607, 106.428, 0.819402
 1152, 404.001, 0.293044, 0.00258406, 103.363, 0.795728
 1155, 405.001, 0.28541, 0.00250502, 100.201, 0.771532
 1158, 406.001, 0.278016, 0.00242382, 96.9527, 0.746882
 1161, 407.001, 0.27087, 0.00234071, 93.6284, 0.721848
 1164, 408.001, 0.263975, 0.00225597, 90.2389, 0.696505
 1167, 409.001, 0.257336, 0.00216989, 86.7954, 0.670926
 1170, 410.001, 0.250957, 0.00208273, 83.3094, 0.645189
 1173, 411.001, 0.244841, 0.00199482, 79.7926, 0.619372
 1176, 412.001, 0.23899, 0.00190642, 76.257, 0.593555
 1179, 413.001, 0.233404, 0.00181786, 72.7145, 0.567815
 1182, 414.001, 0.228083, 0.00172943, 69.1771, 0.54223
 1185, 415.001, 0.223028, 0.00164142, 65.6567, 0.516879
 1188, 416.001, 0.218235, 0.00155412, 62.165, 0.491836
 1191, 417.001, 0.213703, 0.00146783, 58.7131, 0.467175
 1194, 418.001, 0.209427, 0.00138281, 55.3123, 0.442965
 1197, 419.001, 0.205405, 0.00129933, 51.973, 0.419275
 1200, 420.001, 0.201631, 0.00121763, 48.7052, 0.396166
 1203, 421.001, 0.198098, 0.00113796, 45.5183, 0.373698
 1206, 422.001, 0.194801, 0.00106052, 42.4209, 0.351924
 1209, 423.002, 0.191733, 0.000985526, 39.421, 0.330893
 1212, 424.002, 0.188886, 0.000913145, 36.5258, 0.310648
 1215, 425.002, 0.186252, 0.000843535, 33.7414, 0.291226
 1218, 426.002, 0.183823, 0.000776831, 31.0732, 0.272658
 1221, 427.002, 0.181589, 0.000713145, 28.5258, 0.254971
 1224, 428.002, 0.179542, 0.000652564, 26.1026, 0.238181
 1227, 429.002, 0.177671, 0.000595153, 23.8061, 0.222302
 1230, 430.002, 0.175968, 0.000540952, 21.6381, 0.20734
 1233, 431.002, 0.174423, 0.000489981, 19.5992, 0.193296
 1236, 432.002, 0.173025, 0.000442235, 17.6894, 0.180163
 1239, 433.002, 0.171766, 0.000397688, 15.9075, 0.167931
 1242, 434.002, 0.170636, 0.000356296, 14.2518, 0.156584
 1245, 435.002, 0.169626, 0.000317993, 12.7197, 0.1461
 1248, 436.002, 0.168726, 0.000282699, 11.308, 0.136454
 1251, 437.002, 0.167927, 0.000250317, 10.0127, 0.127616
 1254, 438.002, 0.167222, 0.000220737, 8.82948, 0.119554
 1257, 439.002, 0.1666, 0.000193836, 7.75345, 0.112232
 1260, 440.002, 0.166056, 0.000169484, 6.77934, 0.105612
 1263, 441.002, 0.165581, 0.00014754, 5.90158, 0.0996538
 1266, 442.002, 0.165169, 0.00012786, 5.11438, 0.0943166
 1269, 443.002, 0.164812, 0.000110295, 4.4118, 0.0895584
 1272, 444.002, 0.164505, 9.46953e-05, 3.78781, 0.0853373
 1275, 445.002, 0.164242, 8.09105e-05, 3.23642, 0.081611
 1278, 446.002, 0.164018, 6.87915e-05, 2.75166, 0.0783382
 1281, 447.002, 0.163828, 5.81928e-05, 2.32771, 0.0754787
 1284, 448.002, 0.163668, 4.89731e-05, 1.95892, 0.0729937
 1287, 449.002, 0.163533, 4.09965e-05, 1.63986, 0.0708456
 1290, 450.002, 0.163421, 3.41338e-05, 1.36535, 0.0689991
 1293, 451.002, 0.163328, 2.82629e-05, 1.13052, 0.0674209
 1296, 452.002, 0.16325, 2.32696e-05, 0.930784, 0.0660796
 1299, 453.002, 0.163187, 1.90477e-05, 0.761909, 0.0649464
 1302, 454.002, 0.163136, 1.54997e-05, 0.619988, 0.0639948
 1305, 455.002, 0.163094, 1.25363e-05, 0.501453, 0.0632005
 1308, 456.002, 0.16306, 1.00768e-05, 0.403073, 0.0625419
 1311, 457.002, 0.163033, 8.04865e-06, 0.321946, 0.061999
 1314, 458.002, 0.163011, 6.38714e-06, 0.255486, 0.0615546
 1317, 459.002, 0.162994, 5.03513e-06, 0.201405, 0.0611932
 1320, 460.002, 0.162981, 3.94248e-06, 0.157699, 0.0609013
 1323, 461.002, 0.16297, 3.06562e-06, 0.122625, 0.0606672
 1326, 462.002, 0.162962, 2.36695e-06, 0.0946781, 0.0604808
 1329, 463.002, 0.162956, 1.81432e-06, 0.0725729, 0.0603335
 1332, 464.002, 0.162951, 1.38046e-06, 0.0552183, 0.0602178
 1335, 465.002, 0.162948, 1.04242e-06, 0.0416969, 0.0601278
 1338, 466.002, 0.162945, 7.81094e-07, 0.0312438, 0.0600582
 1341, 467.002, 0.162943, 5.80669e-07, 0.0232268, 0.0600048
 1344, 468.002, 0.162941, 4.28197e-07, 0.0171279, 0.0599643
 1347, 469.002, 0.16294, 3.13164e-07, 0.0125266, 0.0599338
 1350, 470.002, 0.162939, 2.27108e-07, 0.00908434, 0.0599108
 1353, 471.002, 0.162939, 1.63286e-07, 0.00653144, 0.0598939
 1356, 472.002, 0.162938, 1.16369e-07, 0.00465476, 0.0598815
 1359, 473.002, 0.162938, 8.21891e-08, 0.00328756, 0.0598724
 1362, 474.002, 0.162938, 5.75169e-08, 0.00230068, 0.0598658
 1365, 475.002, 0.162938, 3.98745e-08, 0.00159498, 0.0598612
 1368, 476.002, 0.162938, 2.73795e-08, 0.00109518, 0.0598578
 1371, 477.002, 0.162938, 1.86164e-08, 0.000744655, 0.0598555
 1374, 478.002, 0.162938, 1.25318e-08, 0.000501273, 0.059854
 1377, 479.002, 0.162938, 8.35005e-09, 0.000334002, 0.0598528
 1380, 480.002, 0.162938, 5.50586e-09, 0.000220235, 0.059852
 1383, 481.002, 0.162938, 3.59192e-09, 0.000143677, 0.0598516
 1386, 482.002, 0.162938, 2.31789e-09, 9.27157e-05, 0.0598513
 1389, 483.002, 0.162938, 1.4792e-09, 5.9168e-05, 0.0598509
 1392, 484.002, 0.162938, 9.33305e-10, 3.73322e-05, 0.0598509
 1395, 485.002, 0.162938, 5.82078e-10, 2.32831e-05, 0.0598508
 1398, 486.002, 0.162938, 3.58751e-10, 1.435e-05, 0.0598507
 1401, 487.002, 0.162938, 2.18449e-10, 8.73797e-06, 0.0598506
 1404, 488.002, 0.162938, 1.31385e-10, 5.25539e-06, 0.0598506
 1407, 489.002, 0.162938, 7.80306e-11, 3.12123e-06, 0.0598507
 1410, 490.002, 0.162938, 4.57505e-11, 1.83002e-06, 0.0598505
 1413, 491.002, 0.162938, 2.64742e-11, 1.05897e-06, 0.0598506
 1416, 492.002, 0.162938, 1.51156e-11, 6.04626e-07, 0.0598505
 1419, 493.002, 0.162938, 8.51311e-12, 3.40524e-07, 0.0598506
 1422, 494.002, 0.162938, 4.72808e-12, 1.89123e-07, 0.0598506
 1425, 495.002, 0.162938, 2.58877e-12, 1.03551e-07, 0.0598506
 1428, 496.002, 0.162938, 1.39696e-12, 5.58785e-08, 0.0598506
 1431, 497.002, 0.162938, 7.42733e-13, 2.97093e-08, 0.0598506
 1434, 498.002, 0.162938, 3.8896e-13, 1.55584e-08, 0.0598506
 1437, 499.002, 0.162938, 2.00571e-13, 8.02284e-09, 0.0598506
 1440, 500.002, 0.162938, 1.01809e-13, 4.07236e-09, 0.0598506
 1443, 501.002, 0.162938, 5.08536e-14, 2.03414e-09, 0.0598506
 1446, 502.002, 0.162938, 2.49881e-14, 9.99525e-10, 0.0598505
 1449, 503.002, 0.162938, 1.20748e-14, 4.82991e-10, 0.0598507
 1452, 504.002, 0.162938, 5.73603e-15, 2.29441e-10, 0.0598505
 1455, 505.002, 0.162938, 2.67784e-15, 1.07114e-10, 0.0598506
 1458, 506.002, 0.162938, 1.22814e-15, 4.91254e-11, 0.0598506
 1461, 507.002, 0.162938, 5.53152e-16, 2.21261e-11, 0.0598506
 1464, 508.002, 0.162938, 2.44581e-16, 9.78323e-12, 0.0598505
 1467, 509.002, 0.162938, 1.06126e-16, 4.24504e-12, 0.0598506
 1470, 510.002, 0.162938, 4.51732e-17, 1.80693e-12, 0.0598506
 1473, 511.002, 0.162938, 1.88554e-17, 7.54217e-13, 0.0598506
 1476, 512.002, 0.162938, 7.71475e-18, 3.0859e-13, 0.0598506
 1479, 513.002, 0.162938, 3.0929e-18, 1.23716e-13, 0.0598506
 1482, 514.002, 0.162938, 1.2145e-18, 4.85801e-14, 0.0598506
 1485, 515.002, 0.162938, 4.6692e-19, 1.86768e-14, 0.0598506
 1488, 516.002, 0.162938, 1.75679e-19, 7.02715e-15, 0.0598507
 1491, 517.002, 0.162938, 6.46619e-20, 2.58648e-15, 0.0598506
 1494, 518.002, 0.162938, 2.32726e-20, 9.30905e-16, 0.0598505
 1497, 519.002, 0.162938, 8.18695e-21, 3.27478e-16, 0.0598507
 1500, 520.002, 0.162938, 2.81377e-21, 1.12551e-16, 0.0598506
 1503, 521.002, 0.162938, 9.44388e-22, 3.77755e-17, 0.0598506
 1506, 522.002, 0.162938, 3.09393e-22, 1.23757e-17, 0.0598505
 1509, 523.002, 0.162938, 9.88941e-23, 3.95576e-18, 0.0598506
 1512, 524.002, 0.162938, 3.08265e-23, 1.23306e-18, 0.0598505
 1515, 525.002, 0.162938, 9.36627e-24, 3.74651e-19, 0.0598505
 1518, 526.002, 0.162938, 2.7726e-24, 1.10904e-19, 0.0598506
 1521, 527.002, 0.162938, 7.99228e-25, 3.19691e-20, 0.0598506
 1524, 528.002, 0.162938, 2.24234e-25, 8.96936e-21, 0.0598506
 1527, 529.002, 0.162938, 6.1201e-26, 2.44804e-21, 0.0598505
 1530, 530.002, 0.162938, 1.62412e-26, 6.49647e-22, 0.0598506
 1533, 531.002, 0.162938, 4.18842e-27, 1.67537e-22, 0.0598506
 1536, 532.002, 0.162938, 1.04912e-27, 4.19648e-23, 0.0598507
 1539, 533.002, 0.162938, 2.55098e-28, 1.02039e-23, 0.0598506
 1542, 534.002, 0.162938, 6.01807e-29, 2.40723e-24, 0.0598507
 1545, 535.002, 0.162938, 1.37668e-29, 5.50671e-25, 0.0598506
 1548, 536.002, 0.162938, 3.05201e-30, 1.2208e-25, 0.0598506
 1551, 537.002, 0.162938, 6.5534e-31, 2.62136e-26, 0.0598506
 1554, 538.002, 0.162938, 1.36214e-31, 5.44855e-27, 0.0598505
 1557, 539.002, 0.162938, 2.73898e-32, 1.09559e-27, 0.0598507
 1560, 540.002, 0.162938, 5.32486e-33, 2.12994e-28, 0.0598505
 1563, 541.002, 0.162938, 1.00026e-33, 4.00103e-29, 0.0598506
 1566, 542.002, 0.162938, 1.81438e-34, 7.25753e-30, 0.0598506
 1569, 543.002, 0.162938, 3.17602e-35, 1.27041e-30, 0.0598506
 1572, 544.002, 0.162938, 5.36163e-36, 2.14465e-31, 0.0598505
 1575, 545.002, 0.162938, 8.72337e-37, 3.48935e-32, 0.0598505
 1578, 546.002, 0.162938, 1.36696e-37, 5.46786e-33, 0.0598505
 1581, 547.002, 0.162938, 2.06169e-38, 8.24676e-34, 0.0598505
 1584, 548.002, 0.162938, 0.0000000E+000, 1.19631e-34, 0.0598506
 1587, 549.002, 0.162938, 0.0000000E+000, 1.66801e-35, 0.0598506
 1590, 550.002, 0.162938, 0.0000000E+000, 2.23379e-36, 0.0598506
 1593, 551.002, 0.162938, 0.0000000E+000, 2.87117e-37, 0.0598506
 1596, 552.002, 0.162938, 0.0000000E+000, 3.53944e-38, 0.0598506
 1599, 553.002, 0.162938, 0.0000000E+000, 0.0000000E+000, 0.0598505
 1602, 554.002, 0.162938, 0.0000000E+000, 0.0000000E+000, 0.0598506
 1605, 555.002, 0.162938, 0.0000000E+000, 0.0000000E+000, 0.0598506
 1608, 556.002, 0.162938, 0.0000000E+000, 0.0000000E+000, 0.0598506
 1611, 557.002, 0.162938, 0.0000000E+000, 0.0000000E+000, 0.0598505
 1614, 558.002, 0.162938, 0.0000000E+000, 0.0000000E+000, 0.0598506
 1617, 559.002, 0.162938, 0.0000000E+000, 0.0000000E+000, 0.0598506
 1620, 560.002, 0.162938, 0.0000000E+000, 0.0000000E+000, 0.0598506
 1623, 561.002, 0.162938, 0.0000000E+000, 0.0000000E+000, 0.0598505
 1626, 562.002, 0.162938, 0.0000000E+000, 0.0000000E+000, 0.0598507
 1629, 563.002, 0.162938, 0.0000000E+000, 0.0000000E+000, 0.0598506
 1632, 564.002, 0.162938, 0.0000000E+000, 0.0000000E+000, 0.0598506
 1635, 565.002, 0.162938, 0.0000000E+000, 0.0000000E+000, 0.0598506
 1638, 566.002, 0.162938, 0.0000000E+000, 0.0000000E+000, 0.0598506
 1641, 567.002, 0.162938, 0.0000000E+000, 0.0000000E+000, 0.0598505
 1644, 568.002, 0.162938, 0.0000000E+000, 0.0000000E+000, 0.0598506
 1647, 569.002, 0.162938, 0.0000000E+000, 0.0000000E+000, 0.0598505
 1650, 570.002, 0.162938, 0.0000000E+000, 0.0000000E+000, 0.0598505
 1653, 571.002, 0.162938, 0.0000000E+000, 0.0000000E+000, 0.0598506
 1656, 572.002, 0.162938, 0.0000000E+000, 0.0000000E+000, 0.0598506
 1659, 573.002, 0.162938, 0.0000000E+000, 0.0000000E+000, 0.0598506
 1662, 574.002, 0.162938, 0.0000000E+000, 0.0000000E+000, 0.0598506
 1665, 575.002, 0.162938, 0.0000000E+000, 0.0000000E+000, 0.0598506
 1668, 576.002, 0.162938, 0.0000000E+000, 0.0000000E+000, 0.0598506
 1671, 577.002, 0.162938, 0.0000000E+000, 0.0000000E+000, 0.0598506
 1674, 578.002, 0.162938, 0.0000000E+000, 0.0000000E+000, 0.0598506
 1677, 579.002, 0.162938, 0.0000000E+000, 0.0000000E+000, 0.0598506
 1680, 580.002, 0.162938, 0.0000000E+000, 0.0000000E+000, 0.0598505
 1683, 581.002, 0.162938, 0.0000000E+000, 0.0000000E+000, 0.0598506
 1686, 582.002, 0.162938, 0.0000000E+000, 0.0000000E+000, 0.0598507
 1689, 583.002, 0.162938, 0.0000000E+000, 0.0000000E+000, 0.0598506
 1692, 584.002, 0.162938, 0.0000000E+000, 0.0000000E+000, 0.0598506
 1695, 585.002, 0.162938, 0.0000000E+000, 0.0000000E+000, 0.0598506
 1698, 586.002, 0.162938, 0.0000000E+000, 0.0000000E+000, 0.0598505
 1701, 587.002, 0.162938, 0.0000000E+000, 0.0000000E+000, 0.0598505
 1704, 588.002, 0.162938, 0.0000000E+000, 0.0000000E+000, 0.0598506
 1707, 589.002, 0.162938, 0.0000000E+000, 0.0000000E+000, 0.0598506
 1710, 590.002, 0.162938, 0.0000000E+000, 0.0000000E+000, 0.0598506
 1713, 591.002, 0.162938, 0.0000000E+000, 0.0000000E+000, 0.0598506
 1716, 592.002, 0.162938, 0.0000000E+000, 0.0000000E+000, 0.0598506
 1719, 593.002, 0.162938, 0.0000000E+000, 0.0000000E+000, 0.0598506
 1722, 594.002, 0.162938, 0.0000000E+000, 0.0000000E+000, 0.0598505
 1725, 595.002, 0.162938, 0.0000000E+000, 0.0000000E+000, 0.0598505
 1728, 596.002, 0.162938, 0.0000000E+000, 0.0000000E+000, 0.0598506
 1731, 597.002, 0.162938, 0.0000000E+000, 0.0000000E+000, 0.0598506
 1734, 598.002, 0.162938, 0.0000000E+000, 0.0000000E+000, 0.0598506
 1737, 599.002, 0.162938, 0.0000000E+000, 0.0000000E+000, 0.0598506
 1740, 600.002, 0.162938, 0.0000000E+000, 0.0000000E+000, 0.0598505
 1743, 601.002, 0.162938, 0.0000000E+000, 0.0000000E+000, 0.0598505
 1746, 602.002, 0.162938, 0.0000000E+000, 0.0000000E+000, 0.0598505
 1749, 603.002, 0.162938, 0.0000000E+000, 0.0000000E+000, 0.0598506
 1752, 604.002, 0.162938, 0.0000000E+000, 0.0000000E+000, 0.0598506
 1755, 605.002, 0.162938, 0.0000000E+000, 0.0000000E+000, 0.0598506
 1758, 606.002, 0.162938, 0.0000000E+000, 0.0000000E+000, 0.0598506
 1761, 607.002, 0.162938, 0.0000000E+000, 0.0000000E+000, 0.0598506
 1764, 608.002, 0.162938, 0.0000000E+000, 0.0000000E+000, 0.0598506
 1767, 609.002, 0.162938, 0.0000000E+000, 0.0000000E+000, 0.0598506
 1770, 610.002, 0.162938, 0.0000000E+000, 0.0000000E+000, 0.0598506
 1773, 611.002, 0.162938, 0.0000000E+000, 0.0000000E+000, 0.0598505
 1776, 612.002, 0.162938, 0.0000000E+000, 0.0000000E+000, 0.0598505
 1779, 613.002, 0.162938, 0.0000000E+000, 0.0000000E+000, 0.0598506
 1782, 614.002, 0.162938, 0.0000000E+000, 0.0000000E+000, 0.0598506
 1785, 615.002, 0.162938, 0.0000000E+000, 0.0000000E+000, 0.0598505
 1788, 616.002, 0.162938, 0.0000000E+000, 0.0000000E+000, 0.0598506
 1791, 617.002, 0.162938, 0.0000000E+000, 0.0000000E+000, 0.0598506
 1794, 618.002, 0.162938, 0.0000000E+000, 0.0000000E+000, 0.0598506
 1797, 619.002, 0.162938, 0.0000000E+000, 0.0000000E+000, 0.0598505
 1800, 620.002, 0.162938, 0.0000000E+000, 0.0000000E+000, 0.0598506
 1803, 621.002, 0.162938, 0.0000000E+000, 0.0000000E+000, 0.0598506
 1806, 622.002, 0.162938, 0.0000000E+000, 0.0000000E+000, 0.0598506
 1809, 623.002, 0.162938, 0.0000000E+000, 0.0000000E+000, 0.0598506
 1812, 624.002, 0.162938, 0.0000000E+000, 0.0000000E+000, 0.0598506
 1815, 625.002, 0.162938, 0.0000000E+000, 0.0000000E+000, 0.0598507
 1818, 626.002, 0.162938, 0.0000000E+000, 0.0000000E+000, 0.0598505
 1821, 627.002, 0.162938, 0.0000000E+000, 0.0000000E+000, 0.0598506
 1824, 628.002, 0.162938, 0.0000000E+000, 0.0000000E+000, 0.0598506
 1827, 629.002, 0.162938, 0.0000000E+000, 0.0000000E+000, 0.0598506
 1830, 630.002, 0.162938, 0.0000000E+000, 0.0000000E+000, 0.0598506
 1833, 631.002, 0.162938, 0.0000000E+000, 0.0000000E+000, 0.0598506
 1836, 632.002, 0.162938, 0.0000000E+000, 0.0000000E+000, 0.0598506
 1839, 633.002, 0.162938, 0.0000000E+000, 0.0000000E+000, 0.0598505
 1842, 634.002, 0.162938, 0.0000000E+000, 0.0000000E+000, 0.0598506
 1845, 635.002, 0.162938, 0.0000000E+000, 0.0000000E+000, 0.0598505
 1848, 636.002, 0.162938, 0.0000000E+000, 0.0000000E+000, 0.0598506
 1851, 637.002, 0.162938, 0.0000000E+000, 0.0000000E+000, 0.0598506
 1854, 638.002, 0.162938, 0.0000000E+000, 0.0000000E+000, 0.0598506
 1857, 639.002, 0.162938, 0.0000000E+000, 0.0000000E+000, 0.0598505
 1860, 640.002, 0.162938, 0.0000000E+000, 0.0000000E+000, 0.0598506
 1863, 641.002, 0.162938, 0.0000000E+000, 0.0000000E+000, 0.0598506
 1866, 642.002, 0.162938, 0.0000000E+000, 0.0000000E+000, 0.0598506
 1869, 643.002, 0.162938, 0.0000000E+000, 0.0000000E+000, 0.0598506
 1872, 644.002, 0.162938, 0.0000000E+000, 0.0000000E+000, 0.0598505
 1875, 645.002, 0.162938, 0.0000000E+000, 0.0000000E+000, 0.0598506
 1878, 646.002, 0.162938, 0.0000000E+000, 0.0000000E+000, 0.0598506
 1881, 647.002, 0.162938, 0.0000000E+000, 0.0000000E+000, 0.0598506
 1884, 648.002, 0.162938, 0.0000000E+000, 0.0000000E+000, 0.0598506
 1887, 649.002, 0.162938, 0.0000000E+000, 0.0000000E+000, 0.0598506
 1890, 650.002, 0.162938, 0.0000000E+000, 0.0000000E+000, 0.0598507
 1893, 651.002, 0.162938, 0.0000000E+000, 0.0000000E+000, 0.0598505
 1896, 652.002, 0.162938, 0.0000000E+000, 0.0000000E+000, 0.0598506
 1899, 653.002, 0.162938, 0.0000000E+000, 0.0000000E+000, 0.0598506
 1902, 654.002, 0.162938, 0.0000000E+000, 0.0000000E+000, 0.0598506
 1905, 655.002, 0.162938, 0.0000000E+000, 0.0000000E+000, 0.0598507
 1908, 656.002, 0.162938, 0.0000000E+000, 0.0000000E+000, 0.0598505
 1911, 657.002, 0.162938, 0.0000000E+000, 0.0000000E+000, 0.0598506
 1914, 658.002, 0.162938, 0.0000000E+000, 0.0000000E+000, 0.0598506
 1917, 659.002, 0.162938, 0.0000000E+000, 0.0000000E+000, 0.0598506
 1920, 660.002, 0.162938, 0.0000000E+000, 0.0000000E+000, 0.0598505
 1923, 661.002, 0.162938, 0.0000000E+000, 0.0000000E+000, 0.0598507
 1926, 662.002, 0.162938, 0.0000000E+000, 0.0000000E+000, 0.0598506
 1929, 663.002, 0.162938, 0.0000000E+000, 0.0000000E+000, 0.0598505
 1932, 664.002, 0.162938, 0.0000000E+000, 0.0000000E+000, 0.0598505
 1935, 665.002, 0.162938, 0.0000000E+000, 0.0000000E+000, 0.0598505
 1938, 666.002, 0.162938, 0.0000000E+000, 0.0000000E+000, 0.0598506
 1941, 667.002, 0.162938, 0.0000000E+000, 0.0000000E+000, 0.0598506
 1944, 668.002, 0.162938, 0.0000000E+000, 0.0000000E+000, 0.0598506
 1947, 669.002, 0.162938, 0.0000000E+000, 0.0000000E+000, 0.0598506
 1950, 670.002, 0.162938, 0.0000000E+000, 0.0000000E+000, 0.0598505
 1953, 671.002, 0.162938, 0.0000000E+000, 0.0000000E+000, 0.0598505
 1956, 672.002, 0.162938, 0.0000000E+000, 0.0000000E+000, 0.0598506
 1959, 673.002, 0.162938, 0.0000000E+000, 0.0000000E+000, 0.0598507
 1962, 674.002, 0.162938, 0.0000000E+000, 0.0000000E+000, 0.0598506
 1965, 675.002, 0.162938, 0.0000000E+000, 0.0000000E+000, 0.0598506
 1968, 676.002, 0.162938, 0.0000000E+000, 0.0000000E+000, 0.0598506
 1971, 677.002, 0.162938, 0.0000000E+000, 0.0000000E+000, 0.0598506
 1974, 678.002, 0.162938, 0.0000000E+000, 0.0000000E+000, 0.0598505
 1977, 679.002, 0.162938, 0.0000000E+000, 0.0000000E+000, 0.0598506
 1980, 680.002, 0.162938, 0.0000000E+000, 0.0000000E+000, 0.0598505
 1983, 681.002, 0.162938, 0.0000000E+000, 0.0000000E+000, 0.0598506
 1986, 682.002, 0.162938, 0.0000000E+000, 0.0000000E+000, 0.0598507
 1989, 683.002, 0.162938, 0.0000000E+000, 0.0000000E+000, 0.0598506
 1992, 684.002, 0.162938, 0.0000000E+000, 0.0000000E+000, 0.0598506
 1995, 685.002, 0.162938, 0.0000000E+000, 0.0000000E+000, 0.0598506
 1998, 686.002, 0.162938, 0.0000000E+000, 0.0000000E+000, 0.0598506
 2001, 687.002, 0.162938, 0.0000000E+000, 0.0000000E+000, 0.0598506
 2004, 688.002, 0.162938, 0.0000000E+000, 0.0000000E+000, 0.0598506
 2007, 689.002, 0.162938, 0.0000000E+000, 0.0000000E+000, 0.0598505
 2010, 690.002, 0.162938, 0.0000000E+000, 0.0000000E+000, 0.0598506
 2013, 691.002, 0.162938, 0.0000000E+000, 0.0000000E+000, 0.0598506
 2016, 692.002, 0.162938, 0.0000000E+000, 0.0000000E+000, 0.0598506
 2019, 693.002, 0.162938, 0.0000000E+000, 0.0000000E+000, 0.0598506
 2022, 694.002, 0.162938, 0.0000000E+000, 0.0000000E+000, 0.0598506
 2025, 695.002, 0.162938, 0.0000000E+000, 0.0000000E+000, 0.0598505
 2028, 696.002, 0.162938, 0.0000000E+000, 0.0000000E+000, 0.0598505
 2031, 697.002, 0.162938, 0.0000000E+000, 0.0000000E+000, 0.0598506
 2034, 698.002, 0.162938, 0.0000000E+000, 0.0000000E+000, 0.0598506
 2037, 699.002, 0.162938, 0.0000000E+000, 0.0000000E+000, 0.0598507
 2040, 700.002, 0.162938, 0.0000000E+000, 0.0000000E+000, 0.0598507
 2043, 701.002, 0.162938, 0.0000000E+000, 0.0000000E+000, 0.0598506
 2046, 702.002, 0.162938, 0.0000000E+000, 0.0000000E+000, 0.0598505
 2049, 703.002, 0.162938, 0.0000000E+000, 0.0000000E+000, 0.0598506
 2052, 704.002, 0.162938, 0.0000000E+000, 0.0000000E+000, 0.0598507
 2055, 705.002, 0.162938, 0.0000000E+000, 0.0000000E+000, 0.0598506
 2058, 706.002, 0.162938, 0.0000000E+000, 0.0000000E+000, 0.0598506
 2061, 707.002, 0.162938, 0.0000000E+000, 0.0000000E+000, 0.0598506
 2064, 708.002, 0.162938, 0.0000000E+000, 0.0000000E+000, 0.0598506
 2067, 709.002, 0.162938, 0.0000000E+000, 0.0000000E+000, 0.0598506
 2070, 710.002, 0.162938, 0.0000000E+000, 0.0000000E+000, 0.0598506
 2073, 711.002, 0.162938, 0.0000000E+000, 0.0000000E+000, 0.0598505
 2076, 712.002, 0.162938, 0.0000000E+000, 0.0000000E+000, 0.0598506
 2079, 713.002, 0.162938, 0.0000000E+000, 0.0000000E+000, 0.0598506
 2082, 714.002, 0.162938, 0.0000000E+000, 0.0000000E+000, 0.0598506
 2085, 715.002, 0.162938, 0.0000000E+000, 0.0000000E+000, 0.0598506
 2088, 716.002, 0.162938, 0.0000000E+000, 0.0000000E+000, 0.0598506
 2091, 717.002, 0.162938, 0.0000000E+000, 0.0000000E+000, 0.0598505
 2094, 718.002, 0.162938, 0.0000000E+000, 0.0000000E+000, 0.0598506
 2097, 719.002, 0.162938, 0.0000000E+000, 0.0000000E+000, 0.0598506
 2100, 720.002, 0.162938, 0.0000000E+000, 0.0000000E+000, 0.0598506
 2103, 721.002, 0.162938, 0.0000000E+000, 0.0000000E+000, 0.0598506
 2106, 722.002, 0.162938, 0.0000000E+000, 0.0000000E+000, 0.0598506
 2109, 723.002, 0.162938, 0.0000000E+000, 0.0000000E+000, 0.0598506
 2112, 724.002, 0.162938, 0.0000000E+000, 0.0000000E+000, 0.0598506
 2115, 725.002, 0.162938, 0.0000000E+000, 0.0000000E+000, 0.0598506
 2118, 726.002, 0.162938, 0.0000000E+000, 0.0000000E+000, 0.0598506
 2121, 727.002, 0.162938, 0.0000000E+000, 0.0000000E+000, 0.0598506
 2124, 728.002, 0.162938, 0.0000000E+000, 0.0000000E+000, 0.0598506
 2127, 729.002, 0.162938, 0.0000000E+000, 0.0000000E+000, 0.0598506
 2130, 730.002, 0.162938, 0.0000000E+000, 0.0000000E+000, 0.0598505
 2133, 731.002, 0.162938, 0.0000000E+000, 0.0000000E+000, 0.0598507
 2136, 732.002, 0.162938, 0.0000000E+000, 0.0000000E+000, 0.0598505
 2139, 733.002, 0.162938, 0.0000000E+000, 0.0000000E+000, 0.0598506
 2142, 734.002, 0.162938, 0.0000000E+000, 0.0000000E+000, 0.0598506
 2145, 735.002, 0.162938, 0.0000000E+000, 0.0000000E+000, 0.0598506
 2148, 736.002, 0.162938, 0.0000000E+000, 0.0000000E+000, 0.0598505
 2151, 737.002, 0.162938, 0.0000000E+000, 0.0000000E+000, 0.0598506
 2154, 738.002, 0.162938, 0.0000000E+000, 0.0000000E+000, 0.0598505
 2157, 739.002, 0.162938, 0.0000000E+000, 0.0000000E+000, 0.0598506
 2160, 740.002, 0.162938, 0.0000000E+000, 0.0000000E+000, 0.0598506
 2163, 741.002, 0.162938, 0.0000000E+000, 0.0000000E+000, 0.0598506
 2166, 742.002, 0.162938, 0.0000000E+000, 0.0000000E+000, 0.0598505
 2169, 743.002, 0.162938, 0.0000000E+000, 0.0000000E+000, 0.0598505
 2172, 744.002, 0.162938, 0.0000000E+000, 0.0000000E+000, 0.0598506
 2175, 745.002, 0.162938, 0.0000000E+000, 0.0000000E+000, 0.0598506
 2178, 746.002, 0.162938, 0.0000000E+000, 0.0000000E+000, 0.0598505
 2181, 747.002, 0.162938, 0.0000000E+000, 0.0000000E+000, 0.0598506
 2184, 748.002, 0.162938, 0.0000000E+000, 0.0000000E+000, 0.0598506
 2187, 749.002, 0.162938, 0.0000000E+000, 0.0000000E+000, 0.0598506
 2190, 750.002, 0.162938, 0.0000000E+000, 0.0000000E+000, 0.0598506
 2193, 751.002, 0.162938, 0.0000000E+000, 0.0000000E+000, 0.0598505
 2196, 752.002, 0.162938, 0.0000000E+000, 0.0000000E+000, 0.0598505
 2199, 753.002, 0.162938, 0.0000000E+000, 0.0000000E+000, 0.0598505
 2202, 754.002, 0.162938, 0.0000000E+000, 0.0000000E+000, 0.0598506
 2205, 755.002, 0.162938, 0.0000000E+000, 0.0000000E+000, 0.0598505
 2208, 756.002, 0.162938, 0.0000000E+000, 0.0000000E+000, 0.0598505
 2211, 757.002, 0.162938, 0.0000000E+000, 0.0000000E+000, 0.0598504
 2214, 758.002, 0.162938, 0.0000000E+000, 0.0000000E+000, 0.0598504
 2217, 759.002, 0.162938, 0.0000000E+000, 0.0000000E+000, 0.0598505
 2220, 760.002, 0.162938, 0.0000000E+000, 0.0000000E+000, 0.0598507
 2223, 761.002, 0.162938, 0.0000000E+000, 0.0000000E+000, 0.0598505
 2226, 762.002, 0.162938, 0.0000000E+000, 0.0000000E+000, 0.0598506
 2229, 763.002, 0.162938, 0.0000000E+000, 0.0000000E+000, 0.0598506
 2232, 764.002, 0.162938, 0.0000000E+000, 0.0000000E+000, 0.0598505
 2235, 765.002, 0.162938, 0.0000000E+000, 0.0000000E+000, 0.0598506
 2238, 766.002, 0.162938, 0.0000000E+000, 0.0000000E+000, 0.0598506
 2241, 767.002, 0.162938, 0.0000000E+000, 0.0000000E+000, 0.0598507
 2244, 768.002, 0.162938, 0.0000000E+000, 0.0000000E+000, 0.0598506
 2247, 769.002, 0.162938, 0.0000000E+000, 0.0000000E+000, 0.0598505
 2250, 770.002, 0.162938, 0.0000000E+000, 0.0000000E+000, 0.0598506
 2253, 771.002, 0.162938, 0.0000000E+000, 0.0000000E+000, 0.0598507
 2256, 772.002, 0.162938, 0.0000000E+000, 0.0000000E+000, 0.0598505
 2259, 773.002, 0.162938, 0.0000000E+000, 0.0000000E+000, 0.0598506
 2262, 774.002, 0.162938, 0.0000000E+000, 0.0000000E+000, 0.0598505
 2265, 775.002, 0.162938, 0.0000000E+000, 0.0000000E+000, 0.0598507
 2268, 776.002, 0.162938, 0.0000000E+000, 0.0000000E+000, 0.0598505
 2271, 777.002, 0.162938, 0.0000000E+000, 0.0000000E+000, 0.0598506
 2274, 778.002, 0.162938, 0.0000000E+000, 0.0000000E+000, 0.0598506
 2277, 779.002, 0.162938, 0.0000000E+000, 0.0000000E+000, 0.0598506
 2280, 780.002, 0.162938, 0.0000000E+000, 0.0000000E+000, 0.0598506
 2283, 781.002, 0.162938, 0.0000000E+000, 0.0000000E+000, 0.0598505
 2286, 782.002, 0.162938, 0.0000000E+000, 0.0000000E+000, 0.0598506
 2289, 783.002, 0.162938, 0.0000000E+000, 0.0000000E+000, 0.0598507
 2292, 784.002, 0.162938, 0.0000000E+000, 0.0000000E+000, 0.0598506
 2295, 785.002, 0.162938, 0.0000000E+000, 0.0000000E+000, 0.0598506
 2298, 786.002, 0.162938, 0.0000000E+000, 0.0000000E+000, 0.0598505
 2301, 787.002, 0.162938, 0.0000000E+000, 0.0000000E+000, 0.0598506
 2304, 788.002, 0.162938, 0.0000000E+000, 0.0000000E+000, 0.0598507
 2307, 789.002, 0.162938, 0.0000000E+000, 0.0000000E+000, 0.0598507
 2310, 790.002, 0.162938, 0.0000000E+000, 0.0000000E+000, 0.0598506
 2313, 791.002, 0.162938, 0.0000000E+000, 0.0000000E+000, 0.0598505
 2316, 792.002, 0.162938, 0.0000000E+000, 0.0000000E+000, 0.0598506
 2319, 793.002, 0.162938, 0.0000000E+000, 0.0000000E+000, 0.0598504
 2322, 794.002, 0.162938, 0.0000000E+000, 0.0000000E+000, 0.0598505
 2325, 795.002, 0.162938, 0.0000000E+000, 0.0000000E+000, 0.0598506
 2328, 796.002, 0.162938, 0.0000000E+000, 0.0000000E+000, 0.0598504
 2331, 797.002, 0.162938, 0.0000000E+000, 0.0000000E+000, 0.0598506
 2334, 798.002, 0.162938, 0.0000000E+000, 0.0000000E+000, 0.0598507
 2337, 799.002, 0.162938, 0.0000000E+000, 0.0000000E+000, 0.0598506
 2340, 800.002, 0.162938, 0.0000000E+000, 0.0000000E+000, 0.0598506