File: examples/Birch_TGA_Example/Best/birch_tga_1step_10_tga.csv
s,C,g/g,1/s,W/g,W/g
Time,Temp,Mass,MLR,MCC,DSC
 6, 21.0007, 0.975, 8.65181e-14, 3.46072e-09, 0.218018
 12, 22.0007, 0.975, 1.01071e-13, 4.04284e-09, 0.218018
 18, 23.0007, 0.975, 1.17948e-13, 4.71791e-09, 0.218018
 24, 24.0007, 0.975, 1.37499e-13, 5.49998e-09, 0.218018
 30, 25.0007, 0.975, 1.60127e-13, 6.4051e-09, 0.218018
 36, 26.0007, 0.975, 1.86289e-13, 7.45158e-09, 0.218018
 42, 27.0007, 0.975, 2.16508e-13, 8.6603e-09, 0.218018
 48, 28.0007, 0.975, 2.51376e-13, 1.0055e-08, 0.218018
 54, 29.0007, 0.975, 2.91572e-13, 1.16629e-08, 0.218018
 60, 30.0007, 0.975, 3.37864e-13, 1.35146e-08, 0.218018
 66, 31.0007, 0.975, 3.91128e-13, 1.56451e-08, 0.218018
 72, 32.0007, 0.975, 4.52353e-13, 1.80941e-08, 0.218018
 78, 33.0007, 0.975, 5.22666e-13, 2.09066e-08, 0.218018
 84, 34.0007, 0.975, 6.0334e-13, 2.41336e-08, 0.218018
 90, 35.0007, 0.975, 6.95818e-13, 2.78327e-08, 0.218018
 96, 36.0007, 0.975, 8.01731e-13, 3.20692e-08, 0.218018
 102, 37.0007, 0.975, 9.22921e-13, 3.69169e-08, 0.218018
 108, 38.0007, 0.975, 1.06147e-12, 4.24588e-08, 0.218018
 114, 39.0007, 0.975, 1.21972e-12, 4.8789e-08, 0.218018
 120, 40.0007, 0.975, 1.40033e-12, 5.60131e-08, 0.218018
 126, 41.0007, 0.975, 1.60626e-12, 6.42505e-08, 0.218018
 132, 42.0007, 0.975, 1.84088e-12, 7.36351e-08, 0.218018
 138, 43.0007, 0.975, 2.10794e-12, 8.43177e-08, 0.218018
 144, 44.0007, 0.975, 2.41169e-12, 9.64676e-08, 0.218018
 150, 45.0007, 0.975, 2.75687e-12, 1.10275e-07, 0.218018
 156, 46.0007, 0.975, 3.14882e-12, 1.25953e-07, 0.218018
 162, 47.0007, 0.975, 3.59351e-12, 1.4374e-07, 0.218018
 168, 48.0007, 0.975, 4.09763e-12, 1.63905e-07, 0.218018
 174, 49.0007, 0.975, 4.66865e-12, 1.86746e-07, 0.218018
 180, 50.0007, 0.975, 5.31496e-12, 2.12599e-07, 0.218018
 186, 51.0007, 0.975, 6.04591e-12, 2.41836e-07, 0.218018
 192, 52.0007, 0.975, 6.87193e-12, 2.74877e-07, 0.218018
 198, 53.0007, 0.975, 7.80467e-12, 3.12187e-07, 0.218018
 204, 54.0007, 0.975, 8.85713e-12, 3.54285e-07, 0.218018
 210, 55.0007, 0.975, 1.00438e-11, 4.0175e-07, 0.218018
 216, 56.0007, 0.975, 1.13807e-11, 4.55227e-07, 0.218018
 222, 57.0007, 0.975, 1.28858e-11, 5.15431e-07, 0.218018
 228, 58.0007, 0.975, 1.4579e-11, 5.83159e-07, 0.218018
 234, 59.0007, 0.975, 1.64824e-11, 6.59297e-07, 0.218018
 240, 60.0007, 0.975, 1.86207e-11, 7.44827e-07, 0.218018
 246, 61.0007, 0.975, 2.1021e-11, 8.40838e-07, 0.218018
 252, 62.0007, 0.975, 2.37135e-11, 9.48539e-07, 0.218018
 258, 63.0007, 0.975, 2.67317e-11, 1.06927e-06, 0.218018
 264, 64.0007, 0.975, 3.01127e-11, 1.20451e-06, 0.218018
 270, 65.0007, 0.975, 3.38974e-11, 1.3559e-06, 0.218018
 276, 66.0007, 0.975, 3.81311e-11, 1.52525e-06, 0.218018
 282, 67.0007, 0.975, 4.2864e-11, 1.71456e-06, 0.218018
 288, 68.0007, 0.975, 4.81513e-11, 1.92605e-06, 0.218018
 294, 69.0007, 0.975, 5.4054e-11, 2.16216e-06, 0.218018
 300, 70.0007, 0.975, 6.06394e-11, 2.42558e-06, 0.218018
 306, 71.0007, 0.975, 6.79817e-11, 2.71927e-06, 0.218018
 312, 72.0007, 0.975, 7.61626e-11, 3.0465e-06, 0.218018
 318, 73.0007, 0.975, 8.52719e-11, 3.41088e-06, 0.218018
 324, 74.0007, 0.975, 9.54086e-11, 3.81635e-06, 0.218018
 330, 75.0007, 0.975, 1.06681e-10, 4.26726e-06, 0.218018
 336, 76.0007, 0.975, 1.1921e-10, 4.7684e-06, 0.218018
 342, 77.0007, 0.975, 1.33125e-10, 5.32501e-06, 0.218018
 348, 78.0007, 0.975, 1.48572e-10, 5.94286e-06, 0.218018
 354, 79.0007, 0.975, 1.65707e-10, 6.62827e-06, 0.218018
 360, 80.0007, 0.975, 1.84704e-10, 7.38815e-06, 0.218018
 366, 81.0007, 0.975, 2.05753e-10, 8.2301e-06, 0.218018
 372, 82.0007, 0.975, 2.29061e-10, 9.16244e-06, 0.218018
 378, 83.0007, 0.975, 2.54856e-10, 1.01942e-05, 0.218018
 384, 84.0007, 0.975, 2.83387e-10, 1.13355e-05, 0.218018
 390, 85.0007, 0.975, 3.14925e-10, 1.2597e-05, 0.218018
 396, 86.0007, 0.975, 3.49767e-10, 1.39907e-05, 0.218019
 402, 87.0007, 0.975, 3.88237e-10, 1.55295e-05, 0.218019
 408, 88.0007, 0.975, 4.3069e-10, 1.72276e-05, 0.218019
 414, 89.0007, 0.975, 4.77512e-10, 1.91005e-05, 0.218019
 420, 90.0007, 0.975, 5.29122e-10, 2.11649e-05, 0.218019
 426, 91.0007, 0.975, 5.85981e-10, 2.34392e-05, 0.218019
 432, 92.0007, 0.975, 6.48586e-10, 2.59435e-05, 0.218019
 438, 93.0007, 0.975, 7.17483e-10, 2.86993e-05, 0.218019
 444, 94.0007, 0.975, 7.93261e-10, 3.17305e-05, 0.218019
 450, 95.0007, 0.975, 8.76565e-10, 3.50626e-05, 0.218019
 456, 96.0007, 0.975, 9.68094e-10, 3.87237e-05, 0.218019
 462, 97.0007, 0.975, 1.06861e-09, 4.27442e-05, 0.218019
 468, 98.0007, 0.975, 1.17892e-09, 4.7157e-05, 0.218019
 474, 99.0007, 0.975, 1.29995e-09, 5.19979e-05, 0.218019
 480, 100.001, 0.975, 1.43264e-09, 5.73057e-05, 0.218019
 486, 101.001, 0.975, 1.57806e-09, 6.31225e-05, 0.218019
 492, 102.001, 0.975, 1.73735e-09, 6.94939e-05, 0.218019
 498, 103.001, 0.975, 1.91173e-09, 7.64693e-05, 0.218019
 504, 104.001, 0.975, 2.10255e-09, 8.41022e-05, 0.218019
 510, 105.001, 0.975, 2.31126e-09, 9.24504e-05, 0.218019
 516, 106.001, 0.975, 2.53942e-09, 0.000101577, 0.218019
 522, 107.001, 0.975, 2.78871e-09, 0.000111548, 0.218019
 528, 108.001, 0.975, 3.06097e-09, 0.000122439, 0.218019
 534, 109.001, 0.975, 3.35818e-09, 0.000134327, 0.218019
 540, 110.001, 0.975, 3.68247e-09, 0.000147299, 0.218019
 546, 111.001, 0.975, 4.03613e-09, 0.000161445, 0.218019
 552, 112.001, 0.975, 4.42165e-09, 0.000176866, 0.21802
 558, 113.001, 0.975, 4.84171e-09, 0.000193668, 0.21802
 564, 114.001, 0.975, 5.29918e-09, 0.000211967, 0.21802
 570, 115.001, 0.975, 5.79719e-09, 0.000231887, 0.21802
 576, 116.001, 0.975, 6.33906e-09, 0.000253563, 0.21802
 582, 117.001, 0.975, 6.92842e-09, 0.000277137, 0.21802
 588, 118.001, 0.974999, 7.56913e-09, 0.000302765, 0.21802
 594, 119.001, 0.974999, 8.26535e-09, 0.000330614, 0.21802
 600, 120.001, 0.974999, 9.02158e-09, 0.000360863, 0.218021
 606, 121.001, 0.974999, 9.84263e-09, 0.000393705, 0.218021
 612, 122.001, 0.974999, 1.07337e-08, 0.000429347, 0.218021
 618, 123.001, 0.974999, 1.17002e-08, 0.00046801, 0.218021
 624, 124.001, 0.974999, 1.27483e-08, 0.000509933, 0.218022
 630, 125.001, 0.974999, 1.38843e-08, 0.000555372, 0.218022
 636, 126.001, 0.974999, 1.51151e-08, 0.000604602, 0.218022
 642, 127.001, 0.974999, 1.64479e-08, 0.000657916, 0.218022
 648, 128.001, 0.974999, 1.78908e-08, 0.00071563, 0.218023
 654, 129.001, 0.974999, 1.9452e-08, 0.000778081, 0.218023
 660, 130.001, 0.974999, 2.11408e-08, 0.000845631, 0.218024
 666, 131.001, 0.974998, 2.29667e-08, 0.000918667, 0.218024
 672, 132.001, 0.974998, 2.49401e-08, 0.000997603, 0.218025
 678, 133.001, 0.974998, 2.70721e-08, 0.00108288, 0.218025
 684, 134.001, 0.974998, 2.93744e-08, 0.00117498, 0.218026
 690, 135.001, 0.974998, 3.18599e-08, 0.0012744, 0.218026
 696, 136.001, 0.974998, 3.45419e-08, 0.00138168, 0.218027
 702, 137.001, 0.974997, 3.74349e-08, 0.0014974, 0.218028
 708, 138.001, 0.974997, 4.05544e-08, 0.00162218, 0.218028
 714, 139.001, 0.974997, 4.39168e-08, 0.00175667, 0.218029
 720, 140.001, 0.974997, 4.75396e-08, 0.00190158, 0.21803
 726, 141.001, 0.974996, 5.14416e-08, 0.00205766, 0.218031
 732, 142.001, 0.974996, 5.56426e-08, 0.00222571, 0.218032
 738, 143.001, 0.974996, 6.01641e-08, 0.00240656, 0.218033
 744, 144.001, 0.974995, 6.50286e-08, 0.00260114, 0.218034
 750, 145.001, 0.974995, 7.02603e-08, 0.00281041, 0.218036
 756, 146.001, 0.974994, 7.58848e-08, 0.00303539, 0.218037
 762, 147.001, 0.974994, 8.19296e-08, 0.00327718, 0.218038
 768, 148.001, 0.974993, 8.84237e-08, 0.00353695, 0.21804
 774, 149.001, 0.974993, 9.53981e-08, 0.00381592, 0.218042
 780, 150.001, 0.974992, 1.02886e-07, 0.00411542, 0.218044
 786, 151.001, 0.974992, 1.10921e-07, 0.00443685, 0.218045
 792, 152.001, 0.974991, 1.19542e-07, 0.00478169, 0.218048
 798, 153.001, 0.97499, 1.28788e-07, 0.00515152, 0.21805
 804, 154.001, 0.974989, 1.387e-07, 0.00554802, 0.218052
 810, 155.001, 0.974989, 1.49324e-07, 0.00597296, 0.218055
 816, 156.001, 0.974988, 1.60706e-07, 0.00642824, 0.218058
 822, 157.001, 0.974987, 1.72897e-07, 0.00691586, 0.21806
 828, 158.001, 0.974986, 1.85949e-07, 0.00743795, 0.218064
 834, 159.001, 0.974984, 1.99919e-07, 0.00799675, 0.218067
 840, 160.001, 0.974983, 2.14867e-07, 0.00859466, 0.218071
 846, 161.001, 0.974982, 2.30855e-07, 0.00923421, 0.218075
 852, 162.001, 0.97498, 2.47952e-07, 0.00991808, 0.218079
 858, 163.001, 0.974979, 2.66227e-07, 0.0106491, 0.218083
 864, 164.001, 0.974977, 2.85757e-07, 0.0114303, 0.218088
 870, 165.001, 0.974975, 3.0662e-07, 0.0122648, 0.218093
 876, 166.001, 0.974974, 3.289e-07, 0.013156, 0.218098
 882, 167.001, 0.974971, 3.52687e-07, 0.0141075, 0.218104
 888, 168.001, 0.974969, 3.78075e-07, 0.015123, 0.21811
 894, 169.001, 0.974967, 4.05162e-07, 0.0162065, 0.218117
 900, 170.001, 0.974964, 4.34055e-07, 0.0173622, 0.218124
 906, 171.001, 0.974962, 4.64863e-07, 0.0185945, 0.218131
 912, 172.001, 0.974959, 4.97705e-07, 0.0199082, 0.218139
 918, 173.001, 0.974956, 5.32704e-07, 0.0213081, 0.218147
 924, 174.001, 0.974952, 5.6999e-07, 0.0227996, 0.218156
 930, 175.001, 0.974949, 6.09702e-07, 0.0243881, 0.218166
 936, 176.001, 0.974945, 6.51985e-07, 0.0260794, 0.218176
 942, 177.001, 0.974941, 6.96993e-07, 0.0278797, 0.218187
 948, 178.001, 0.974937, 7.44887e-07, 0.0297955, 0.218198
 954, 179.001, 0.974932, 7.95837e-07, 0.0318335, 0.218211
 960, 180.001, 0.974927, 8.50024e-07, 0.034001, 0.218224
 966, 181.001, 0.974922, 9.07637e-07, 0.0363055, 0.218238
 972, 182.001, 0.974916, 9.68875e-07, 0.038755, 0.218252
 978, 183.001, 0.97491, 1.03395e-06, 0.0413579, 0.218268
 984, 184.001, 0.974904, 1.10308e-06, 0.0441231, 0.218284
 990, 185.001, 0.974897, 1.1765e-06, 0.0470598, 0.218302
 996, 186.001, 0.97489, 1.25445e-06, 0.0501779, 0.218321
 1002, 187.001, 0.974882, 1.33719e-06, 0.0534876, 0.218341
 1008, 188.001, 0.974874, 1.42499e-06, 0.0569998, 0.218362
 1014, 189.001, 0.974865, 1.51815e-06, 0.0607258, 0.218384
 1020, 190.001, 0.974855, 1.61694e-06, 0.0646777, 0.218408
 1026, 191.001, 0.974845, 1.7217e-06, 0.068868, 0.218433
 1032, 192.001, 0.974835, 1.83275e-06, 0.07331, 0.218459
 1038, 193.001, 0.974823, 1.95043e-06, 0.0780174, 0.218487
 1044, 194.001, 0.974811, 2.07512e-06, 0.0830049, 0.218517
 1050, 195.001, 0.974799, 2.20719e-06, 0.0882878, 0.218549
 1056, 196.001, 0.974785, 2.34705e-06, 0.0938821, 0.218582
 1062, 197.001, 0.97477, 2.49512e-06, 0.0998047, 0.218617
 1068, 198.001, 0.974755, 2.65183e-06, 0.106073, 0.218655
 1074, 199.001, 0.974738, 2.81766e-06, 0.112706, 0.218694
 1080, 200.001, 0.974721, 2.99308e-06, 0.119723, 0.218736
 1086, 201.001, 0.974703, 3.17861e-06, 0.127145, 0.21878
 1092, 202.001, 0.974683, 3.37479e-06, 0.134991, 0.218827
 1098, 203.001, 0.974662, 3.58216e-06, 0.143286, 0.218877
 1104, 204.001, 0.97464, 3.80132e-06, 0.152053, 0.218929
 1110, 205.001, 0.974616, 4.03287e-06, 0.161315, 0.218984
 1116, 206.001, 0.974591, 4.27747e-06, 0.171099, 0.219042
 1122, 207.001, 0.974565, 4.53579e-06, 0.181431, 0.219103
 1128, 208.001, 0.974537, 4.80852e-06, 0.192341, 0.219168
 1134, 209.001, 0.974507, 5.0964e-06, 0.203856, 0.219237
 1140, 210.001, 0.974476, 5.40021e-06, 0.216008, 0.219309
 1146, 211.001, 0.974442, 5.72074e-06, 0.22883, 0.219385
 1152, 212.001, 0.974407, 6.05884e-06, 0.242354, 0.219465
 1158, 213.001, 0.97437, 6.4154e-06, 0.256616, 0.21955
 1164, 214.001, 0.97433, 6.79132e-06, 0.271653, 0.219639
 1170, 215.001, 0.974288, 7.18756e-06, 0.287503, 0.219732
 1176, 216.001, 0.974244, 7.60515e-06, 0.304206, 0.219831
 1182, 217.001, 0.974197, 8.04511e-06, 0.321804, 0.219935
 1188, 218.001, 0.974147, 8.50854e-06, 0.340342, 0.220045
 1194, 219.001, 0.974095, 8.99658e-06, 0.359863, 0.220161
 1200, 220.001, 0.974039, 9.51044e-06, 0.380417, 0.220282
 1206, 221.001, 0.97398, 1.00513e-05, 0.402053, 0.22041
 1212, 222.001, 0.973919, 1.06206e-05, 0.424823, 0.220544
 1218, 223.001, 0.973853, 1.12195e-05, 0.448781, 0.220686
 1224, 224.001, 0.973784, 1.18496e-05, 0.473982, 0.220834
 1230, 225.001, 0.973711, 1.25122e-05, 0.500487, 0.220991
 1236, 226.001, 0.973634, 1.32089e-05, 0.528355, 0.221155
 1242, 227.001, 0.973552, 1.39413e-05, 0.557652, 0.221328
 1248, 228.001, 0.973466, 1.4711e-05, 0.588442, 0.221509
 1254, 229.001, 0.973375, 1.55199e-05, 0.620796, 0.221699
 1260, 230.001, 0.97328, 1.63696e-05, 0.654785, 0.221899
 1266, 231.001, 0.973179, 1.72621e-05, 0.690484, 0.222109
 1272, 232.001, 0.973073, 1.81993e-05, 0.727971, 0.22233
 1278, 233.001, 0.97296, 1.91832e-05, 0.767327, 0.222561
 1284, 234.001, 0.972842, 2.02159e-05, 0.808637, 0.222803
 1290, 235.001, 0.972718, 2.12997e-05, 0.851987, 0.223058
 1296, 236.001, 0.972587, 2.24367e-05, 0.89747, 0.223325
 1302, 237.001, 0.972448, 2.36295e-05, 0.945179, 0.223605
 1308, 238.001, 0.972303, 2.48803e-05, 0.995212, 0.223898
 1314, 239.001, 0.97215, 2.61918e-05, 1.04767, 0.224205
 1320, 240.001, 0.971988, 2.75666e-05, 1.10267, 0.224527
 1326, 241.001, 0.971819, 2.90075e-05, 1.1603, 0.224865
 1332, 242.001, 0.97164, 3.05174e-05, 1.22069, 0.225218
 1338, 243.001, 0.971452, 3.20991e-05, 1.28396, 0.225588
 1344, 244.001, 0.971255, 3.37557e-05, 1.35023, 0.225975
 1350, 245.001, 0.971047, 3.54905e-05, 1.41962, 0.226381
 1356, 246.001, 0.970829, 3.73066e-05, 1.49227, 0.226805
 1362, 247.001, 0.970599, 3.92076e-05, 1.56831, 0.227249
 1368, 248.001, 0.970358, 4.1197e-05, 1.64788, 0.227713
 1374, 249.001, 0.970105, 4.32784e-05, 1.73114, 0.228198
 1380, 250.001, 0.969839, 4.54557e-05, 1.81823, 0.228706
 1386, 251.001, 0.969559, 4.77326e-05, 1.90931, 0.229236
 1392, 252.001, 0.969266, 5.01134e-05, 2.00454, 0.229791
 1398, 253.001, 0.968957, 5.26021e-05, 2.10408, 0.23037
 1404, 254.001, 0.968634, 5.52032e-05, 2.20813, 0.230975
 1410, 255.001, 0.968295, 5.7921e-05, 2.31684, 0.231607
 1416, 256.001, 0.967939, 6.07602e-05, 2.43041, 0.232267
 1422, 257.001, 0.967565, 6.37256e-05, 2.54903, 0.232956
 1428, 258.001, 0.967174, 6.68222e-05, 2.67289, 0.233674
 1434, 259.001, 0.966763, 7.00548e-05, 2.80219, 0.234424
 1440, 260.001, 0.966333, 7.3429e-05, 2.93716, 0.235207
 1446, 261.001, 0.965882, 7.69499e-05, 3.07799, 0.236023
 1452, 262.001, 0.965409, 8.06231e-05, 3.22492, 0.236873
 1458, 263.001, 0.964914, 8.44544e-05, 3.37818, 0.23776
 1464, 264.001, 0.964395, 8.84497e-05, 3.53799, 0.238685
 1470, 265.001, 0.963852, 9.2615e-05, 3.7046, 0.239648
 1476, 266.001, 0.963283, 9.69566e-05, 3.87826, 0.240651
 1482, 267.001, 0.962688, 0.000101481, 4.05923, 0.241696
 1488, 268.001, 0.962065, 0.000106194, 4.24776, 0.242784
 1494, 269.001, 0.961413, 0.000111103, 4.44413, 0.243916
 1500, 270.001, 0.960732, 0.000116215, 4.64861, 0.245094
 1506, 271.001, 0.960018, 0.000121537, 4.86149, 0.246321
 1512, 272.001, 0.959273, 0.000127076, 5.08305, 0.247596
 1518, 273.001, 0.958493, 0.00013284, 5.3136, 0.248922
 1524, 274.001, 0.957678, 0.000138836, 5.55343, 0.250301
 1530, 275.001, 0.956826, 0.000145071, 5.80285, 0.251733
 1536, 276.001, 0.955937, 0.000151555, 6.06219, 0.253222
 1542, 277.001, 0.955007, 0.000158294, 6.33176, 0.254769
 1548, 278.001, 0.954036, 0.000165297, 6.61189, 0.256375
 1554, 279.001, 0.953023, 0.000172573, 6.90292, 0.258042
 1560, 280.001, 0.951965, 0.00018013, 7.20518, 0.259772
 1566, 281.001, 0.950861, 0.000187976, 7.51903, 0.261568
 1572, 282.001, 0.949709, 0.00019612, 7.84481, 0.26343
 1578, 283.001, 0.948507, 0.000204572, 8.18289, 0.265361
 1584, 284.001, 0.947253, 0.00021334, 8.53361, 0.267363
 1590, 285.001, 0.945946, 0.000222433, 8.89734, 0.269437
 1596, 286.001, 0.944583, 0.000231861, 9.27446, 0.271586
 1602, 287.001, 0.943163, 0.000241633, 9.66532, 0.273812
 1608, 288.001, 0.941683, 0.000251758, 10.0703, 0.276116
 1614, 289.001, 0.940141, 0.000262245, 10.4898, 0.2785
 1620, 290.001, 0.938535, 0.000273104, 10.9241, 0.280967
 1626, 291.001, 0.936863, 0.000284344, 11.3737, 0.283518
 1632, 292.001, 0.935122, 0.000295974, 11.839, 0.286155
 1638, 293.001, 0.93331, 0.000308005, 12.3202, 0.288881
 1644, 294.001, 0.931425, 0.000320444, 12.8178, 0.291696
 1650, 295.001, 0.929464, 0.000333301, 13.3321, 0.294603
 1656, 296.001, 0.927424, 0.000346586, 13.8634, 0.297603
 1662, 297.001, 0.925304, 0.000360307, 14.4123, 0.300699
 1668, 298.001, 0.9231, 0.000374472, 14.9789, 0.303892
 1674, 299.001, 0.920809, 0.000389091, 15.5636, 0.307183
 1680, 300.001, 0.918429, 0.00040417, 16.1668, 0.310574
 1686, 301.001, 0.915958, 0.000419719, 16.7887, 0.314066
 1692, 302.001, 0.913392, 0.000435744, 17.4297, 0.317661
 1698, 303.001, 0.910728, 0.000452252, 18.0901, 0.32136
 1704, 304.001, 0.907963, 0.000469251, 18.77, 0.325163
 1710, 305.001, 0.905096, 0.000486746, 19.4698, 0.329072
 1716, 306.001, 0.902121, 0.000504743, 20.1897, 0.333088
 1722, 307.001, 0.899037, 0.000523246, 20.9298, 0.337211
 1728, 308.001, 0.895841, 0.00054226, 21.6904, 0.341442
 1734, 309.001, 0.892529, 0.000561789, 22.4716, 0.34578
 1740, 310.001, 0.889098, 0.000581834, 23.2734, 0.350225
 1746, 311.001, 0.885546, 0.000602398, 24.0959, 0.354778
 1752, 312.001, 0.881868, 0.000623481, 24.9392, 0.359438
 1758, 313.001, 0.878063, 0.000645083, 25.8033, 0.364204
 1764, 314.001, 0.874126, 0.000667203, 26.6881, 0.369075
 1770, 315.001, 0.870055, 0.000689837, 27.5935, 0.374049
 1776, 316.001, 0.865847, 0.000712983, 28.5193, 0.379125
 1782, 317.001, 0.861498, 0.000736634, 29.4653, 0.384301
 1788, 318.001, 0.857006, 0.000760783, 30.4313, 0.389574
 1794, 319.001, 0.852368, 0.000785422, 31.4169, 0.394941
 1800, 320.001, 0.84758, 0.000810542, 32.4217, 0.400399
 1806, 321.001, 0.84264, 0.000836129, 33.4452, 0.405944
 1812, 322.001, 0.837545, 0.000862171, 34.4868, 0.411571
 1818, 323.001, 0.832293, 0.00088865, 35.546, 0.417277
 1824, 324.001, 0.82688, 0.00091555, 36.622, 0.423056
 1830, 325.001, 0.821305, 0.000942851, 37.714, 0.428902
 1836, 326.001, 0.815565, 0.000970529, 38.8212, 0.434808
 1842, 327.001, 0.809658, 0.00099856, 39.9424, 0.440768
 1848, 328.001, 0.803581, 0.00102692, 41.0767, 0.446774
 1854, 329.001, 0.797334, 0.00105557, 42.2228, 0.452818
 1860, 330.001, 0.790914, 0.00108449, 43.3795, 0.458891
 1866, 331.001, 0.784319, 0.00111363, 44.5453, 0.464983
 1872, 332.001, 0.777549, 0.00114297, 45.7187, 0.471085
 1878, 333.001, 0.770603, 0.00117245, 46.8981, 0.477184
 1884, 334.001, 0.763479, 0.00120204, 48.0817, 0.48327
 1890, 335.001, 0.756178, 0.00123169, 49.2676, 0.48933
 1896, 336.001, 0.748699, 0.00126135, 50.4538, 0.495351
 1902, 337.001, 0.741042, 0.00129096, 51.6383, 0.501319
 1908, 338.001, 0.733207, 0.00132047, 52.8186, 0.50722
 1914, 339.001, 0.725196, 0.00134982, 53.9926, 0.513037
 1920, 340.001, 0.71701, 0.00137894, 55.1577, 0.518756
 1926, 341.001, 0.708649, 0.00140778, 56.3112, 0.52436
 1932, 342.001, 0.700117, 0.00143626, 57.4504, 0.52983
 1938, 343.001, 0.691415, 0.00146431, 58.5724, 0.535149
 1944, 344.001, 0.682546, 0.00149186, 59.6744, 0.540298
 1950, 345.001, 0.673513, 0.00151883, 60.7531, 0.545257
 1956, 346.001, 0.664321, 0.00154514, 61.8054, 0.550007
 1962, 347.001, 0.654973, 0.0015707, 62.8281, 0.554527
 1968, 348.001, 0.645474, 0.00159544, 63.8177, 0.558796
 1974, 349.001, 0.635829, 0.00161927, 64.7709, 0.562793
 1980, 350.001, 0.626044, 0.0016421, 65.684, 0.566496
 1986, 351.001, 0.616126, 0.00166384, 66.5535, 0.569884
 1992, 352.001, 0.60608, 0.0016844, 67.3759, 0.572934
 1998, 353.001, 0.595915, 0.00170369, 68.1475, 0.575625
 2004, 354.001, 0.585639, 0.00172161, 68.8645, 0.577933
 2010, 355.001, 0.575259, 0.00173809, 69.5235, 0.579838
 2016, 356.001, 0.564785, 0.00175302, 70.1207, 0.581318
 2022, 357.001, 0.554226, 0.00176631, 70.6526, 0.582352
 2028, 358.001, 0.543592, 0.00177789, 71.1157, 0.582919
 2034, 359.001, 0.532894, 0.00178766, 71.5066, 0.582999
 2040, 360.001, 0.522144, 0.00179555, 71.822, 0.582573
 2046, 361.001, 0.511352, 0.00180147, 72.0587, 0.581624
 2052, 362.001, 0.50053, 0.00180534, 72.2137, 0.580135
 2058, 363.001, 0.489692, 0.00180711, 72.2843, 0.578089
 2064, 364.001, 0.478849, 0.0018067, 72.2678, 0.575474
 2070, 365.001, 0.468016, 0.00180405, 72.162, 0.572277
 2076, 366.001, 0.457205, 0.00179912, 71.9647, 0.568488
 2082, 367.001, 0.446431, 0.00179186, 71.6742, 0.564098
 2088, 368.001, 0.435708, 0.00178223, 71.2891, 0.559102
 2094, 369.001, 0.425049, 0.00177021, 70.8083, 0.553495
 2100, 370.001, 0.41447, 0.00175578, 70.231, 0.547277
 2106, 371.001, 0.403985, 0.00173893, 69.5571, 0.540448
 2112, 372.001, 0.393608, 0.00171966, 68.7865, 0.533013
 2118, 373.001, 0.383354, 0.001698, 67.9199, 0.524979
 2124, 374.001, 0.373237, 0.00167396, 66.9583, 0.516355
 2130, 375.001, 0.363272, 0.00164758, 65.9033, 0.507156
 2136, 376.001, 0.353471, 0.00161892, 64.7567, 0.497396
 2142, 377.001, 0.343849, 0.00158803, 63.521, 0.487097
 2148, 378.001, 0.334419, 0.00155498, 62.1994, 0.476279
 2154, 379.001, 0.325194, 0.00151988, 60.7951, 0.464968
 2160, 380.001, 0.316185, 0.0014828, 59.3122, 0.453193
 2166, 381.001, 0.307404, 0.00144388, 57.7551, 0.440986
 2172, 382.001, 0.298862, 0.00140322, 56.1286, 0.428381
 2178, 383.001, 0.290569, 0.00136095, 54.4382, 0.415415
 2184, 384.001, 0.282534, 0.00131724, 52.6895, 0.402128
 2190, 385.001, 0.274766, 0.00127222, 50.8887, 0.388561
 2196, 386.001, 0.267271, 0.00122606, 49.0423, 0.37476
 2202, 387.001, 0.260055, 0.00117892, 47.157, 0.360769
 2208, 388.001, 0.253125, 0.001131, 45.2399, 0.346635
 2214, 389.001, 0.246485, 0.00108245, 43.2982, 0.332408
 2220, 390.001, 0.240137, 0.00103348, 41.3393, 0.318136
 2226, 391.001, 0.234084, 0.000984268, 39.3707, 0.303868
 2232, 392.001, 0.228327, 0.000935, 37.4, 0.289654
 2238, 393.001, 0.222865, 0.000885866, 35.4347, 0.275544
 2244, 394.001, 0.217696, 0.000837052, 33.4821, 0.261585
 2250, 395.001, 0.212819, 0.000788738, 31.5495, 0.247824
 2256, 396.001, 0.20823, 0.000741102, 29.6441, 0.234306
 2262, 397.001, 0.203925, 0.000694311, 27.7725, 0.221075
 2268, 398.001, 0.199897, 0.000648528, 25.9411, 0.208171
 2274, 399.001, 0.196141, 0.000603902, 24.1561, 0.195633
 2280, 400.001, 0.192648, 0.000560574, 22.4229, 0.183495
 2286, 401.001, 0.189411, 0.00051867, 20.7468, 0.171788
 2292, 402.001, 0.186422, 0.000478304, 19.1322, 0.16054
 2298, 403.001, 0.183669, 0.000439577, 17.5831, 0.149776
 2304, 404.001, 0.181144, 0.000402572, 16.1029, 0.139515
 2310, 405.001, 0.178835, 0.000367359, 14.6944, 0.129772
 2316, 406.001, 0.176732, 0.000333992, 13.3597, 0.12056
 2322, 407.001, 0.174823, 0.000302509, 12.1004, 0.111885
 2328, 408.001, 0.173098, 0.000272932, 10.9173, 0.103751
 2334, 409.001, 0.171545, 0.000245268, 9.81071, 0.0961567
 2340, 410.001, 0.170151, 0.000219509, 8.78036, 0.0890979
 2346, 411.001, 0.168907, 0.000195634, 7.82535, 0.0825661
 2352, 412.001, 0.1678, 0.000173607, 6.94429, 0.0765497
 2358, 413.001, 0.16682, 0.000153383, 6.13533, 0.071034
 2364, 414.001, 0.165957, 0.000134904, 5.39615, 0.0660014
 2370, 415.001, 0.165198, 0.000118102, 4.72407, 0.0614318
 2376, 416.001, 0.164536, 0.000102902, 4.11609, 0.0573036
 2382, 417.001, 0.163961, 8.92226e-05, 3.5689, 0.053593
 2388, 418.001, 0.163463, 7.69758e-05, 3.07903, 0.050275
 2394, 419.001, 0.163034, 6.60706e-05, 2.64282, 0.047324
 2400, 420.001, 0.162668, 5.64131e-05, 2.25653, 0.0447135
 2406, 421.001, 0.162355, 4.79086e-05, 1.91634, 0.0424172
 2412, 422.001, 0.162091, 4.04622e-05, 1.61849, 0.0404086
 2418, 423.001, 0.161868, 3.39803e-05, 1.35921, 0.0386619
 2424, 424.001, 0.161681, 2.83718e-05, 1.13487, 0.037152
 2430, 425.001, 0.161526, 2.35486e-05, 0.941943, 0.0358548
 2436, 426.001, 0.161397, 1.94266e-05, 0.777066, 0.0347472
 2442, 427.001, 0.161292, 1.59265e-05, 0.637059, 0.0338073
 2448, 428.001, 0.161205, 1.29737e-05, 0.518949, 0.0330151
 2454, 429.001, 0.161135, 1.04994e-05, 0.419975, 0.0323518
 2460, 430.001, 0.161078, 8.44007e-06, 0.337603, 0.0318002
 2466, 431.001, 0.161033, 6.73817e-06, 0.269527, 0.0313448
 2472, 432.001, 0.160997, 5.34168e-06, 0.213667, 0.0309711
 2478, 433.001, 0.160968, 4.20416e-06, 0.168166, 0.0306671
 2484, 434.001, 0.160946, 3.28451e-06, 0.13138, 0.0304213
 2490, 435.001, 0.160929, 2.54667e-06, 0.101867, 0.0302245
 2496, 436.001, 0.160915, 1.95933e-06, 0.0783733, 0.0300678
 2502, 437.001, 0.160905, 1.49553e-06, 0.0598212, 0.0299441
 2508, 438.001, 0.160897, 1.13227e-06, 0.0452908, 0.0298472
 2514, 439.001, 0.160891, 8.50136e-07, 0.0340055, 0.0297721
 2520, 440.001, 0.160887, 6.32885e-07, 0.0253154, 0.0297143
 2526, 441.001, 0.160883, 4.67058e-07, 0.0186823, 0.0296701
 2532, 442.001, 0.160881, 3.41614e-07, 0.0136646, 0.0296368
 2538, 443.001, 0.160879, 2.47587e-07, 0.00990348, 0.0296118
 2544, 444.001, 0.160878, 1.77768e-07, 0.00711072, 0.0295933
 2550, 445.001, 0.160877, 1.2642e-07, 0.00505681, 0.0295797
 2556, 446.001, 0.160876, 8.90266e-08, 0.00356106, 0.0295697
 2562, 447.001, 0.160876, 6.20673e-08, 0.00248269, 0.0295626
 2568, 448.001, 0.160876, 4.28296e-08, 0.00171318, 0.0295574
 2574, 449.001, 0.160875, 2.92455e-08, 0.00116982, 0.0295539
 2580, 450.001, 0.160875, 1.97561e-08, 0.000790246, 0.0295513
 2586, 451.001, 0.160875, 1.31997e-08, 0.000527989, 0.0295497
 2592, 452.001, 0.160875, 8.7204e-09, 0.000348816, 0.0295484
 2598, 453.001, 0.160875, 5.69514e-09, 0.000227806, 0.0295475
 2604, 454.001, 0.160875, 3.67582e-09, 0.000147033, 0.0295471
 2610, 455.001, 0.160875, 2.34405e-09, 9.37621e-05, 0.0295466
 2616, 456.001, 0.160875, 1.47647e-09, 5.90588e-05, 0.0295465
 2622, 457.001, 0.160875, 9.18341e-10, 3.67337e-05, 0.0295463
 2628, 458.001, 0.160875, 5.63873e-10, 2.25549e-05, 0.0295464
 2634, 459.001, 0.160875, 3.41687e-10, 1.36675e-05, 0.0295462
 2640, 460.001, 0.160875, 2.04276e-10, 8.17103e-06, 0.0295462
 2646, 461.001, 0.160875, 1.20452e-10, 4.81807e-06, 0.0295461
 2652, 462.001, 0.160875, 7.003e-11, 2.8012e-06, 0.0295461
 2658, 463.001, 0.160875, 4.0132e-11, 1.60528e-06, 0.0295462
 2664, 464.001, 0.160875, 2.26618e-11, 9.06473e-07, 0.0295461
 2670, 465.001, 0.160875, 1.26053e-11, 5.0421e-07, 0.0295462
 2676, 466.001, 0.160875, 6.90425e-12, 2.7617e-07, 0.0295462
 2682, 467.001, 0.160875, 3.72255e-12, 1.48902e-07, 0.029546
 2688, 468.001, 0.160875, 1.97503e-12, 7.90011e-08, 0.0295462
 2694, 469.001, 0.160875, 1.03076e-12, 4.12306e-08, 0.0295462
 2700, 470.001, 0.160875, 5.28983e-13, 2.11593e-08, 0.0295461
 2706, 471.001, 0.160875, 2.66846e-13, 1.06738e-08, 0.029546
 2712, 472.001, 0.160875, 1.32267e-13, 5.29069e-09, 0.0295462
 2718, 473.001, 0.160875, 6.43947e-14, 2.57579e-09, 0.0295461
 2724, 474.001, 0.160875, 3.07812e-14, 1.23125e-09, 0.0295462
 2730, 475.001, 0.160875, 1.44406e-14, 5.77622e-10, 0.0295461
 2736, 476.001, 0.160875, 6.64615e-15, 2.65846e-10, 0.0295461
 2742, 477.001, 0.160875, 2.99961e-15, 1.19984e-10, 0.0295461
 2748, 478.001, 0.160875, 1.32704e-15, 5.30818e-11, 0.0295461
 2754, 479.001, 0.160875, 5.75235e-16, 2.30094e-11, 0.0295461
 2760, 480.001, 0.160875, 2.44205e-16, 9.7682e-12, 0.0295461
 2766, 481.001, 0.160875, 1.01489e-16, 4.05957e-12, 0.0295462
 2772, 482.001, 0.160875, 4.1271e-17, 1.65084e-12, 0.0295461
 2778, 483.001, 0.160875, 1.64146e-17, 6.56582e-13, 0.0295461
 2784, 484.001, 0.160875, 6.38217e-18, 2.55287e-13, 0.0295461
 2790, 485.001, 0.160875, 2.42468e-18, 9.69871e-14, 0.0295461
 2796, 486.001, 0.160875, 8.99652e-19, 3.59861e-14, 0.0295461
 2802, 487.001, 0.160875, 3.25848e-19, 1.30339e-14, 0.0295461
 2808, 488.001, 0.160875, 1.15148e-19, 4.6059e-15, 0.0295461
 2814, 489.001, 0.160875, 3.96799e-20, 1.5872e-15, 0.0295461
 2820, 490.001, 0.160875, 1.33271e-20, 5.33084e-16, 0.0295461
 2826, 491.001, 0.160875, 4.36031e-21, 1.74412e-16, 0.0295462
 2832, 492.001, 0.160875, 1.38893e-21, 5.55572e-17, 0.0295461
 2838, 493.001, 0.160875, 4.3051e-22, 1.72204e-17, 0.0295462
 2844, 494.001, 0.160875, 1.29773e-22, 5.19091e-18, 0.0295462
 2850, 495.001, 0.160875, 3.80216e-23, 1.52086e-18, 0.0295461
 2856, 496.001, 0.160875, 1.08211e-23, 4.32845e-19, 0.0295462
 2862, 497.001, 0.160875, 2.98985e-24, 1.19594e-19, 0.0295461
 2868, 498.001, 0.160875, 8.01497e-25, 3.20599e-20, 0.0295461
 2874, 499.001, 0.160875, 2.08334e-25, 8.33337e-21, 0.0295461
 2880, 500.001, 0.160875, 5.24753e-26, 2.09901e-21, 0.0295461
 2886, 501.001, 0.160875, 1.28e-26, 5.11998e-22, 0.0295461
 2892, 502.001, 0.160875, 3.02162e-27, 1.20865e-22, 0.0295462
 2898, 503.001, 0.160875, 6.89861e-28, 2.75944e-23, 0.0295461
 2904, 504.001, 0.160875, 1.52224e-28, 6.08898e-24, 0.0295462
 2910, 505.001, 0.160875, 3.24423e-29, 1.29769e-24, 0.0295461
 2916, 506.001, 0.160875, 6.67329e-30, 2.66932e-25, 0.0295461
 2922, 507.001, 0.160875, 1.32393e-30, 5.29573e-26, 0.0295461
 2928, 508.001, 0.160875, 2.53148e-31, 1.01259e-26, 0.0295461
 2934, 509.001, 0.160875, 4.66178e-32, 1.86471e-27, 0.0295462
 2940, 510.001, 0.160875, 8.26176e-33, 3.30471e-28, 0.0295461
 2946, 511.001, 0.160875, 1.40802e-33, 5.63209e-29, 0.0295461
 2952, 512.001, 0.160875, 2.30584e-34, 9.22337e-30, 0.0295461
 2958, 513.001, 0.160875, 3.6257e-35, 1.45028e-30, 0.0295461
 2964, 514.001, 0.160875, 5.46957e-36, 2.18783e-31, 0.0295461
 2970, 515.001, 0.160875, 7.90971e-37, 3.16388e-32, 0.0295461
 2976, 516.001, 0.160875, 1.09562e-37, 4.38246e-33, 0.0295462
 2982, 517.001, 0.160875, 1.45239e-38, 5.80956e-34, 0.0295461
 2988, 518.001, 0.160875, 0.0000000E+000, 7.36422e-35, 0.0295462
 2994, 519.001, 0.160875, 0.0000000E+000, 8.91853e-36, 0.0295461
 3000, 520.001, 0.160875, 0.0000000E+000, 1.03101e-36, 0.0295461
 3006, 521.001, 0.160875, 0.0000000E+000, 1.1367e-37, 0.0295461
 3012, 522.001, 0.160875, 0.0000000E+000, 1.19412e-38, 0.029546
 3018, 523.001, 0.160875, 0.0000000E+000, 0.0000000E+000, 0.0295461
 3024, 524.001, 0.160875, 0.0000000E+000, 0.0000000E+000, 0.0295461
 3030, 525.001, 0.160875, 0.0000000E+000, 0.0000000E+000, 0.0295462
 3036, 526.001, 0.160875, 0.0000000E+000, 0.0000000E+000, 0.0295461
 3042, 527.001, 0.160875, 0.0000000E+000, 0.0000000E+000, 0.0295462
 3048, 528.001, 0.160875, 0.0000000E+000, 0.0000000E+000, 0.029546
 3054, 529.001, 0.160875, 0.0000000E+000, 0.0000000E+000, 0.0295462
 3060, 530.001, 0.160875, 0.0000000E+000, 0.0000000E+000, 0.0295461
 3066, 531.001, 0.160875, 0.0000000E+000, 0.0000000E+000, 0.0295461
 3072, 532.001, 0.160875, 0.0000000E+000, 0.0000000E+000, 0.0295461
 3078, 533.001, 0.160875, 0.0000000E+000, 0.0000000E+000, 0.0295461
 3084, 534.001, 0.160875, 0.0000000E+000, 0.0000000E+000, 0.0295461
 3090, 535.001, 0.160875, 0.0000000E+000, 0.0000000E+000, 0.0295462
 3096, 536.001, 0.160875, 0.0000000E+000, 0.0000000E+000, 0.0295462
 3102, 537.001, 0.160875, 0.0000000E+000, 0.0000000E+000, 0.0295462
 3108, 538.001, 0.160875, 0.0000000E+000, 0.0000000E+000, 0.0295462
 3114, 539.001, 0.160875, 0.0000000E+000, 0.0000000E+000, 0.0295461
 3120, 540.001, 0.160875, 0.0000000E+000, 0.0000000E+000, 0.0295461
 3126, 541.001, 0.160875, 0.0000000E+000, 0.0000000E+000, 0.0295461
 3132, 542.001, 0.160875, 0.0000000E+000, 0.0000000E+000, 0.0295461
 3138, 543.001, 0.160875, 0.0000000E+000, 0.0000000E+000, 0.0295461
 3144, 544.001, 0.160875, 0.0000000E+000, 0.0000000E+000, 0.0295461
 3150, 545.001, 0.160875, 0.0000000E+000, 0.0000000E+000, 0.0295462
 3156, 546.001, 0.160875, 0.0000000E+000, 0.0000000E+000, 0.0295461
 3162, 547.001, 0.160875, 0.0000000E+000, 0.0000000E+000, 0.0295461
 3168, 548.001, 0.160875, 0.0000000E+000, 0.0000000E+000, 0.0295461
 3174, 549.001, 0.160875, 0.0000000E+000, 0.0000000E+000, 0.0295461
 3180, 550.001, 0.160875, 0.0000000E+000, 0.0000000E+000, 0.0295462
 3186, 551.001, 0.160875, 0.0000000E+000, 0.0000000E+000, 0.029546
 3192, 552.001, 0.160875, 0.0000000E+000, 0.0000000E+000, 0.0295461
 3198, 553.001, 0.160875, 0.0000000E+000, 0.0000000E+000, 0.0295462
 3204, 554.001, 0.160875, 0.0000000E+000, 0.0000000E+000, 0.0295462
 3210, 555.001, 0.160875, 0.0000000E+000, 0.0000000E+000, 0.0295461
 3216, 556.001, 0.160875, 0.0000000E+000, 0.0000000E+000, 0.0295462
 3222, 557.001, 0.160875, 0.0000000E+000, 0.0000000E+000, 0.0295461
 3228, 558.001, 0.160875, 0.0000000E+000, 0.0000000E+000, 0.0295461
 3234, 559.001, 0.160875, 0.0000000E+000, 0.0000000E+000, 0.0295461
 3240, 560.001, 0.160875, 0.0000000E+000, 0.0000000E+000, 0.0295462
 3246, 561.001, 0.160875, 0.0000000E+000, 0.0000000E+000, 0.0295461
 3252, 562.001, 0.160875, 0.0000000E+000, 0.0000000E+000, 0.0295462
 3258, 563.001, 0.160875, 0.0000000E+000, 0.0000000E+000, 0.0295461
 3264, 564.001, 0.160875, 0.0000000E+000, 0.0000000E+000, 0.0295461
 3270, 565.001, 0.160875, 0.0000000E+000, 0.0000000E+000, 0.0295462
 3276, 566.001, 0.160875, 0.0000000E+000, 0.0000000E+000, 0.0295461
 3282, 567.001, 0.160875, 0.0000000E+000, 0.0000000E+000, 0.0295461
 3288, 568.001, 0.160875, 0.0000000E+000, 0.0000000E+000, 0.0295462
 3294, 569.001, 0.160875, 0.0000000E+000, 0.0000000E+000, 0.0295461
 3300, 570.001, 0.160875, 0.0000000E+000, 0.0000000E+000, 0.0295462
 3306, 571.001, 0.160875, 0.0000000E+000, 0.0000000E+000, 0.0295462
 3312, 572.001, 0.160875, 0.0000000E+000, 0.0000000E+000, 0.0295462
 3318, 573.001, 0.160875, 0.0000000E+000, 0.0000000E+000, 0.0295461
 3324, 574.001, 0.160875, 0.0000000E+000, 0.0000000E+000, 0.0295461
 3330, 575.001, 0.160875, 0.0000000E+000, 0.0000000E+000, 0.0295462
 3336, 576.001, 0.160875, 0.0000000E+000, 0.0000000E+000, 0.0295461
 3342, 577.001, 0.160875, 0.0000000E+000, 0.0000000E+000, 0.0295461
 3348, 578.001, 0.160875, 0.0000000E+000, 0.0000000E+000, 0.0295462
 3354, 579.001, 0.160875, 0.0000000E+000, 0.0000000E+000, 0.0295461
 3360, 580.001, 0.160875, 0.0000000E+000, 0.0000000E+000, 0.0295461
 3366, 581.001, 0.160875, 0.0000000E+000, 0.0000000E+000, 0.0295461
 3372, 582.001, 0.160875, 0.0000000E+000, 0.0000000E+000, 0.0295462
 3378, 583.001, 0.160875, 0.0000000E+000, 0.0000000E+000, 0.0295461
 3384, 584.001, 0.160875, 0.0000000E+000, 0.0000000E+000, 0.0295461
 3390, 585.001, 0.160875, 0.0000000E+000, 0.0000000E+000, 0.0295462
 3396, 586.001, 0.160875, 0.0000000E+000, 0.0000000E+000, 0.0295461
 3402, 587.001, 0.160875, 0.0000000E+000, 0.0000000E+000, 0.0295461
 3408, 588.001, 0.160875, 0.0000000E+000, 0.0000000E+000, 0.0295462
 3414, 589.001, 0.160875, 0.0000000E+000, 0.0000000E+000, 0.0295461
 3420, 590.001, 0.160875, 0.0000000E+000, 0.0000000E+000, 0.0295461
 3426, 591.001, 0.160875, 0.0000000E+000, 0.0000000E+000, 0.0295462
 3432, 592.001, 0.160875, 0.0000000E+000, 0.0000000E+000, 0.0295461
 3438, 593.001, 0.160875, 0.0000000E+000, 0.0000000E+000, 0.0295461
 3444, 594.001, 0.160875, 0.0000000E+000, 0.0000000E+000, 0.0295461
 3450, 595.001, 0.160875, 0.0000000E+000, 0.0000000E+000, 0.0295462
 3456, 596.001, 0.160875, 0.0000000E+000, 0.0000000E+000, 0.0295461
 3462, 597.001, 0.160875, 0.0000000E+000, 0.0000000E+000, 0.0295462
 3468, 598.001, 0.160875, 0.0000000E+000, 0.0000000E+000, 0.029546
 3474, 599.001, 0.160875, 0.0000000E+000, 0.0000000E+000, 0.0295461
 3480, 600.001, 0.160875, 0.0000000E+000, 0.0000000E+000, 0.029546
 3486, 601.001, 0.160875, 0.0000000E+000, 0.0000000E+000, 0.0295461
 3492, 602.001, 0.160875, 0.0000000E+000, 0.0000000E+000, 0.0295461
 3498, 603.001, 0.160875, 0.0000000E+000, 0.0000000E+000, 0.0295461
 3504, 604.001, 0.160875, 0.0000000E+000, 0.0000000E+000, 0.0295462
 3510, 605.001, 0.160875, 0.0000000E+000, 0.0000000E+000, 0.0295461
 3516, 606.001, 0.160875, 0.0000000E+000, 0.0000000E+000, 0.0295462
 3522, 607.001, 0.160875, 0.0000000E+000, 0.0000000E+000, 0.0295461
 3528, 608.001, 0.160875, 0.0000000E+000, 0.0000000E+000, 0.0295461
 3534, 609.001, 0.160875, 0.0000000E+000, 0.0000000E+000, 0.0295462
 3540, 610.001, 0.160875, 0.0000000E+000, 0.0000000E+000, 0.0295461
 3546, 611.001, 0.160875, 0.0000000E+000, 0.0000000E+000, 0.0295461
 3552, 612.001, 0.160875, 0.0000000E+000, 0.0000000E+000, 0.0295461
 3558, 613.001, 0.160875, 0.0000000E+000, 0.0000000E+000, 0.0295461
 3564, 614.001, 0.160875, 0.0000000E+000, 0.0000000E+000, 0.0295461
 3570, 615.001, 0.160875, 0.0000000E+000, 0.0000000E+000, 0.0295461
 3576, 616.001, 0.160875, 0.0000000E+000, 0.0000000E+000, 0.0295461
 3582, 617.001, 0.160875, 0.0000000E+000, 0.0000000E+000, 0.0295461
 3588, 618.001, 0.160875, 0.0000000E+000, 0.0000000E+000, 0.0295461
 3594, 619.001, 0.160875, 0.0000000E+000, 0.0000000E+000, 0.0295461
 3600, 620.001, 0.160875, 0.0000000E+000, 0.0000000E+000, 0.0295461
 3606, 621.001, 0.160875, 0.0000000E+000, 0.0000000E+000, 0.0295462
 3612, 622.001, 0.160875, 0.0000000E+000, 0.0000000E+000, 0.0295461
 3618, 623.001, 0.160875, 0.0000000E+000, 0.0000000E+000, 0.0295461
 3624, 624.001, 0.160875, 0.0000000E+000, 0.0000000E+000, 0.0295462
 3630, 625.001, 0.160875, 0.0000000E+000, 0.0000000E+000, 0.0295461
 3636, 626.001, 0.160875, 0.0000000E+000, 0.0000000E+000, 0.0295461
 3642, 627.001, 0.160875, 0.0000000E+000, 0.0000000E+000, 0.0295462
 3648, 628.001, 0.160875, 0.0000000E+000, 0.0000000E+000, 0.0295461
 3654, 629.001, 0.160875, 0.0000000E+000, 0.0000000E+000, 0.0295461
 3660, 630.001, 0.160875, 0.0000000E+000, 0.0000000E+000, 0.0295461
 3666, 631.001, 0.160875, 0.0000000E+000, 0.0000000E+000, 0.0295462
 3672, 632.001, 0.160875, 0.0000000E+000, 0.0000000E+000, 0.0295461
 3678, 633.001, 0.160875, 0.0000000E+000, 0.0000000E+000, 0.0295461
 3684, 634.001, 0.160875, 0.0000000E+000, 0.0000000E+000, 0.0295461
 3690, 635.001, 0.160875, 0.0000000E+000, 0.0000000E+000, 0.0295461
 3696, 636.001, 0.160875, 0.0000000E+000, 0.0000000E+000, 0.0295461
 3702, 637.001, 0.160875, 0.0000000E+000, 0.0000000E+000, 0.0295461
 3708, 638.001, 0.160875, 0.0000000E+000, 0.0000000E+000, 0.0295461
 3714, 639.001, 0.160875, 0.0000000E+000, 0.0000000E+000, 0.0295461
 3720, 640.001, 0.160875, 0.0000000E+000, 0.0000000E+000, 0.0295461
 3726, 641.001, 0.160875, 0.0000000E+000, 0.0000000E+000, 0.0295461
 3732, 642.001, 0.160875, 0.0000000E+000, 0.0000000E+000, 0.0295462
 3738, 643.001, 0.160875, 0.0000000E+000, 0.0000000E+000, 0.0295461
 3744, 644.001, 0.160875, 0.0000000E+000, 0.0000000E+000, 0.0295461
 3750, 645.001, 0.160875, 0.0000000E+000, 0.0000000E+000, 0.0295462
 3756, 646.001, 0.160875, 0.0000000E+000, 0.0000000E+000, 0.0295461
 3762, 647.001, 0.160875, 0.0000000E+000, 0.0000000E+000, 0.029546
 3768, 648.001, 0.160875, 0.0000000E+000, 0.0000000E+000, 0.0295461
 3774, 649.001, 0.160875, 0.0000000E+000, 0.0000000E+000, 0.0295462
 3780, 650.001, 0.160875, 0.0000000E+000, 0.0000000E+000, 0.0295461
 3786, 651.001, 0.160875, 0.0000000E+000, 0.0000000E+000, 0.0295461
 3792, 652.001, 0.160875, 0.0000000E+000, 0.0000000E+000, 0.0295461
 3798, 653.001, 0.160875, 0.0000000E+000, 0.0000000E+000, 0.0295461
 3804, 654.001, 0.160875, 0.0000000E+000, 0.0000000E+000, 0.0295462
 3810, 655.001, 0.160875, 0.0000000E+000, 0.0000000E+000, 0.0295462
 3816, 656.001, 0.160875, 0.0000000E+000, 0.0000000E+000, 0.0295461
 3822, 657.001, 0.160875, 0.0000000E+000, 0.0000000E+000, 0.0295461
 3828, 658.001, 0.160875, 0.0000000E+000, 0.0000000E+000, 0.0295461
 3834, 659.001, 0.160875, 0.0000000E+000, 0.0000000E+000, 0.0295462
 3840, 660.001, 0.160875, 0.0000000E+000, 0.0000000E+000, 0.0295462
 3846, 661.001, 0.160875, 0.0000000E+000, 0.0000000E+000, 0.0295462
 3852, 662.001, 0.160875, 0.0000000E+000, 0.0000000E+000, 0.0295461
 3858, 663.001, 0.160875, 0.0000000E+000, 0.0000000E+000, 0.0295461
 3864, 664.001, 0.160875, 0.0000000E+000, 0.0000000E+000, 0.0295462
 3870, 665.001, 0.160875, 0.0000000E+000, 0.0000000E+000, 0.0295461
 3876, 666.001, 0.160875, 0.0000000E+000, 0.0000000E+000, 0.0295462
 3882, 667.001, 0.160875, 0.0000000E+000, 0.0000000E+000, 0.0295461
 3888, 668.001, 0.160875, 0.0000000E+000, 0.0000000E+000, 0.0295462
 3894, 669.001, 0.160875, 0.0000000E+000, 0.0000000E+000, 0.0295462
 3900, 670.001, 0.160875, 0.0000000E+000, 0.0000000E+000, 0.0295461
 3906, 671.001, 0.160875, 0.0000000E+000, 0.0000000E+000, 0.0295461
 3912, 672.001, 0.160875, 0.0000000E+000, 0.0000000E+000, 0.0295461
 3918, 673.001, 0.160875, 0.0000000E+000, 0.0000000E+000, 0.0295461
 3924, 674.001, 0.160875, 0.0000000E+000, 0.0000000E+000, 0.0295461
 3930, 675.001, 0.160875, 0.0000000E+000, 0.0000000E+000, 0.0295462
 3936, 676.001, 0.160875, 0.0000000E+000, 0.0000000E+000, 0.0295461
 3942, 677.001, 0.160875, 0.0000000E+000, 0.0000000E+000, 0.0295461
 3948, 678.001, 0.160875, 0.0000000E+000, 0.0000000E+000, 0.0295461
 3954, 679.001, 0.160875, 0.0000000E+000, 0.0000000E+000, 0.0295461
 3960, 680.001, 0.160875, 0.0000000E+000, 0.0000000E+000, 0.0295461
 3966, 681.001, 0.160875, 0.0000000E+000, 0.0000000E+000, 0.0295461
 3972, 682.001, 0.160875, 0.0000000E+000, 0.0000000E+000, 0.0295461
 3978, 683.001, 0.160875, 0.0000000E+000, 0.0000000E+000, 0.0295461
 3984, 684.001, 0.160875, 0.0000000E+000, 0.0000000E+000, 0.0295462
 3990, 685.001, 0.160875, 0.0000000E+000, 0.0000000E+000, 0.0295462
 3996, 686.001, 0.160875, 0.0000000E+000, 0.0000000E+000, 0.0295462
 4002, 687.001, 0.160875, 0.0000000E+000, 0.0000000E+000, 0.0295462
 4008, 688.001, 0.160875, 0.0000000E+000, 0.0000000E+000, 0.0295461
 4014, 689.001, 0.160875, 0.0000000E+000, 0.0000000E+000, 0.0295462
 4020, 690.001, 0.160875, 0.0000000E+000, 0.0000000E+000, 0.029546
 4026, 691.001, 0.160875, 0.0000000E+000, 0.0000000E+000, 0.0295461
 4032, 692.001, 0.160875, 0.0000000E+000, 0.0000000E+000, 0.0295461
 4038, 693.001, 0.160875, 0.0000000E+000, 0.0000000E+000, 0.0295461
 4044, 694.001, 0.160875, 0.0000000E+000, 0.0000000E+000, 0.0295462
 4050, 695.001, 0.160875, 0.0000000E+000, 0.0000000E+000, 0.0295461
 4056, 696.001, 0.160875, 0.0000000E+000, 0.0000000E+000, 0.0295461
 4062, 697.001, 0.160875, 0.0000000E+000, 0.0000000E+000, 0.0295462
 4068, 698.001, 0.160875, 0.0000000E+000, 0.0000000E+000, 0.0295461
 4074, 699.001, 0.160875, 0.0000000E+000, 0.0000000E+000, 0.0295462
 4080, 700.001, 0.160875, 0.0000000E+000, 0.0000000E+000, 0.0295461
 4086, 701.001, 0.160875, 0.0000000E+000, 0.0000000E+000, 0.0295461
 4092, 702.001, 0.160875, 0.0000000E+000, 0.0000000E+000, 0.0295462
 4098, 703.001, 0.160875, 0.0000000E+000, 0.0000000E+000, 0.0295461
 4104, 704.001, 0.160875, 0.0000000E+000, 0.0000000E+000, 0.0295461
 4110, 705.001, 0.160875, 0.0000000E+000, 0.0000000E+000, 0.0295461
 4116, 706.001, 0.160875, 0.0000000E+000, 0.0000000E+000, 0.0295461
 4122, 707.001, 0.160875, 0.0000000E+000, 0.0000000E+000, 0.0295462
 4128, 708.001, 0.160875, 0.0000000E+000, 0.0000000E+000, 0.0295461
 4134, 709.001, 0.160875, 0.0000000E+000, 0.0000000E+000, 0.0295461
 4140, 710.001, 0.160875, 0.0000000E+000, 0.0000000E+000, 0.0295461
 4146, 711.001, 0.160875, 0.0000000E+000, 0.0000000E+000, 0.0295461
 4152, 712.001, 0.160875, 0.0000000E+000, 0.0000000E+000, 0.0295461
 4158, 713.001, 0.160875, 0.0000000E+000, 0.0000000E+000, 0.0295461
 4164, 714.001, 0.160875, 0.0000000E+000, 0.0000000E+000, 0.0295461
 4170, 715.001, 0.160875, 0.0000000E+000, 0.0000000E+000, 0.0295462
 4176, 716.001, 0.160875, 0.0000000E+000, 0.0000000E+000, 0.0295461
 4182, 717.001, 0.160875, 0.0000000E+000, 0.0000000E+000, 0.0295461
 4188, 718.001, 0.160875, 0.0000000E+000, 0.0000000E+000, 0.0295461
 4194, 719.001, 0.160875, 0.0000000E+000, 0.0000000E+000, 0.029546
 4200, 720.001, 0.160875, 0.0000000E+000, 0.0000000E+000, 0.0295461
 4206, 721.001, 0.160875, 0.0000000E+000, 0.0000000E+000, 0.0295461
 4212, 722.001, 0.160875, 0.0000000E+000, 0.0000000E+000, 0.0295461
 4218, 723.001, 0.160875, 0.0000000E+000, 0.0000000E+000, 0.0295462
 4224, 724.001, 0.160875, 0.0000000E+000, 0.0000000E+000, 0.029546
 4230, 725.001, 0.160875, 0.0000000E+000, 0.0000000E+000, 0.0295461
 4236, 726.001, 0.160875, 0.0000000E+000, 0.0000000E+000, 0.0295462
 4242, 727.001, 0.160875, 0.0000000E+000, 0.0000000E+000, 0.0295461
 4248, 728.001, 0.160875, 0.0000000E+000, 0.0000000E+000, 0.0295462
 4254, 729.001, 0.160875, 0.0000000E+000, 0.0000000E+000, 0.0295461
 4260, 730.001, 0.160875, 0.0000000E+000, 0.0000000E+000, 0.0295462
 4266, 731.001, 0.160875, 0.0000000E+000, 0.0000000E+000, 0.0295461
 4272, 732.001, 0.160875, 0.0000000E+000, 0.0000000E+000, 0.0295462
 4278, 733.001, 0.160875, 0.0000000E+000, 0.0000000E+000, 0.0295461
 4284, 734.001, 0.160875, 0.0000000E+000, 0.0000000E+000, 0.0295461
 4290, 735.001, 0.160875, 0.0000000E+000, 0.0000000E+000, 0.0295461
 4296, 736.001, 0.160875, 0.0000000E+000, 0.0000000E+000, 0.0295461
 4302, 737.001, 0.160875, 0.0000000E+000, 0.0000000E+000, 0.0295461
 4308, 738.001, 0.160875, 0.0000000E+000, 0.0000000E+000, 0.0295461
 4314, 739.001, 0.160875, 0.0000000E+000, 0.0000000E+000, 0.0295461
 4320, 740.001, 0.160875, 0.0000000E+000, 0.0000000E+000, 0.0295462
 4326, 741.001, 0.160875, 0.0000000E+000, 0.0000000E+000, 0.0295461
 4332, 742.001, 0.160875, 0.0000000E+000, 0.0000000E+000, 0.0295462
 4338, 743.001, 0.160875, 0.0000000E+000, 0.0000000E+000, 0.0295461
 4344, 744.001, 0.160875, 0.0000000E+000, 0.0000000E+000, 0.0295461
 4350, 745.001, 0.160875, 0.0000000E+000, 0.0000000E+000, 0.0295461
 4356, 746.001, 0.160875, 0.0000000E+000, 0.0000000E+000, 0.0295462
 4362, 747.001, 0.160875, 0.0000000E+000, 0.0000000E+000, 0.0295461
 4368, 748.001, 0.160875, 0.0000000E+000, 0.0000000E+000, 0.0295461
 4374, 749.001, 0.160875, 0.0000000E+000, 0.0000000E+000, 0.0295461
 4380, 750.001, 0.160875, 0.0000000E+000, 0.0000000E+000, 0.0295462
 4386, 751.001, 0.160875, 0.0000000E+000, 0.0000000E+000, 0.0295461
 4392, 752.001, 0.160875, 0.0000000E+000, 0.0000000E+000, 0.029546
 4398, 753.001, 0.160875, 0.0000000E+000, 0.0000000E+000, 0.0295461
 4404, 754.001, 0.160875, 0.0000000E+000, 0.0000000E+000, 0.0295462
 4410, 755.001, 0.160875, 0.0000000E+000, 0.0000000E+000, 0.0295461
 4416, 756.001, 0.160875, 0.0000000E+000, 0.0000000E+000, 0.029546
 4422, 757.001, 0.160875, 0.0000000E+000, 0.0000000E+000, 0.029546
 4428, 758.001, 0.160875, 0.0000000E+000, 0.0000000E+000, 0.0295461
 4434, 759.001, 0.160875, 0.0000000E+000, 0.0000000E+000, 0.0295462
 4440, 760.001, 0.160875, 0.0000000E+000, 0.0000000E+000, 0.0295459
 4446, 761.001, 0.160875, 0.0000000E+000, 0.0000000E+000, 0.0295462
 4452, 762.001, 0.160875, 0.0000000E+000, 0.0000000E+000, 0.029546
 4458, 763.001, 0.160875, 0.0000000E+000, 0.0000000E+000, 0.0295462
 4464, 764.001, 0.160875, 0.0000000E+000, 0.0000000E+000, 0.0295461
 4470, 765.001, 0.160875, 0.0000000E+000, 0.0000000E+000, 0.0295462
 4476, 766.001, 0.160875, 0.0000000E+000, 0.0000000E+000, 0.0295461
 4482, 767.001, 0.160875, 0.0000000E+000, 0.0000000E+000, 0.0295461
 4488, 768.001, 0.160875, 0.0000000E+000, 0.0000000E+000, 0.0295462
 4494, 769.001, 0.160875, 0.0000000E+000, 0.0000000E+000, 0.0295462
 4500, 770.001, 0.160875, 0.0000000E+000, 0.0000000E+000, 0.0295461
 4506, 771.001, 0.160875, 0.0000000E+000, 0.0000000E+000, 0.0295461
 4512, 772.001, 0.160875, 0.0000000E+000, 0.0000000E+000, 0.0295464
 4518, 773.001, 0.160875, 0.0000000E+000, 0.0000000E+000, 0.0295462
 4524, 774.001, 0.160875, 0.0000000E+000, 0.0000000E+000, 0.0295461
 4530, 775.001, 0.160875, 0.0000000E+000, 0.0000000E+000, 0.0295461
 4536, 776.001, 0.160875, 0.0000000E+000, 0.0000000E+000, 0.0295462
 4542, 777.001, 0.160875, 0.0000000E+000, 0.0000000E+000, 0.0295463
 4548, 778.001, 0.160875, 0.0000000E+000, 0.0000000E+000, 0.0295461
 4554, 779.001, 0.160875, 0.0000000E+000, 0.0000000E+000, 0.0295462
 4560, 780.001, 0.160875, 0.0000000E+000, 0.0000000E+000, 0.0295461
 4566, 781.001, 0.160875, 0.0000000E+000, 0.0000000E+000, 0.0295461
 4572, 782.001, 0.160875, 0.0000000E+000, 0.0000000E+000, 0.0295461
 4578, 783.001, 0.160875, 0.0000000E+000, 0.0000000E+000, 0.0295461
 4584, 784.001, 0.160875, 0.0000000E+000, 0.0000000E+000, 0.0295463
 4590, 785.001, 0.160875, 0.0000000E+000, 0.0000000E+000, 0.029546
 4596, 786.001, 0.160875, 0.0000000E+000, 0.0000000E+000, 0.0295462
 4602, 787.001, 0.160875, 0.0000000E+000, 0.0000000E+000, 0.0295462
 4608, 788.001, 0.160875, 0.0000000E+000, 0.0000000E+000, 0.0295461
 4614, 789.001, 0.160875, 0.0000000E+000, 0.0000000E+000, 0.0295461
 4620, 790.001, 0.160875, 0.0000000E+000, 0.0000000E+000, 0.029546
 4626, 791.001, 0.160875, 0.0000000E+000, 0.0000000E+000, 0.0295462
 4632, 792.001, 0.160875, 0.0000000E+000, 0.0000000E+000, 0.0295463
 4638, 793.001, 0.160875, 0.0000000E+000, 0.0000000E+000, 0.0295462
 4644, 794.001, 0.160875, 0.0000000E+000, 0.0000000E+000, 0.0295462
 4650, 795.001, 0.160875, 0.0000000E+000, 0.0000000E+000, 0.0295463
 4656, 796.001, 0.160875, 0.0000000E+000, 0.0000000E+000, 0.0295462
 4662, 797.001, 0.160875, 0.0000000E+000, 0.0000000E+000, 0.0295462
 4668, 798.001, 0.160875, 0.0000000E+000, 0.0000000E+000, 0.0295462
 4674, 799.001, 0.160875, 0.0000000E+000, 0.0000000E+000, 0.0295462
 4680, 800.001, 0.160875, 0.0000000E+000, 0.0000000E+000, 0.0295463