File: examples/Birch_TGA_Example/Work/Cone_ehfeyept/birch_tga_1step_2_tga.csv
s,C,g/g,1/s,W/g,W/g
Time,Temp,Mass,MLR,MCC,DSC
 30, 21.0001, 0.999987, 4.80453e-07, 0.0000000E+000, 0.0484218
 60, 22.0001, 0.999971, 5.51532e-07, 0.0000000E+000, 0.0485805
 90, 23.0001, 0.999953, 6.32482e-07, 0.0000000E+000, 0.0487612
 120, 24.0001, 0.999933, 7.24574e-07, 0.0000000E+000, 0.0489667
 150, 25.0001, 0.99991, 8.29223e-07, 0.0000000E+000, 0.0492002
 180, 26.0001, 0.999883, 9.4801e-07, 0.0000000E+000, 0.0494653
 210, 27.0001, 0.999853, 1.08269e-06, 0.0000000E+000, 0.0497658
 240, 28.0001, 0.999818, 1.2352e-06, 0.0000000E+000, 0.0501061
 270, 29.0001, 0.999778, 1.40771e-06, 0.0000000E+000, 0.0504909
 300, 30.0001, 0.999733, 1.60258e-06, 0.0000000E+000, 0.0509255
 330, 31.0001, 0.999682, 1.82243e-06, 0.0000000E+000, 0.0514158
 360, 32.0001, 0.999624, 2.07013e-06, 0.0000000E+000, 0.0519682
 390, 33.0001, 0.999557, 2.34882e-06, 0.0000000E+000, 0.0525895
 420, 34.0001, 0.999482, 2.66189e-06, 0.0000000E+000, 0.0532874
 450, 35.0001, 0.999397, 3.01305e-06, 0.0000000E+000, 0.0540701
 480, 36.0001, 0.999301, 3.40628e-06, 0.0000000E+000, 0.0549465
 510, 37.0001, 0.999193, 3.84585e-06, 0.0000000E+000, 0.0559259
 540, 38.0001, 0.99907, 4.3363e-06, 0.0000000E+000, 0.0570186
 570, 39.0001, 0.998932, 4.88242e-06, 0.0000000E+000, 0.058235
 600, 40.0001, 0.998776, 5.48922e-06, 0.0000000E+000, 0.0595863
 630, 41.0001, 0.998602, 6.16185e-06, 0.0000000E+000, 0.0610839
 660, 42.0001, 0.998406, 6.90557e-06, 0.0000000E+000, 0.0627394
 690, 43.0001, 0.998187, 7.72561e-06, 0.0000000E+000, 0.0645643
 720, 44.0001, 0.997942, 8.62708e-06, 0.0000000E+000, 0.0665699
 750, 45.0001, 0.997668, 9.61477e-06, 0.0000000E+000, 0.0687666
 780, 46.0001, 0.997364, 1.06929e-05, 0.0000000E+000, 0.0711637
 810, 47.0001, 0.997026, 1.18651e-05, 0.0000000E+000, 0.0737688
 840, 48.0001, 0.996651, 1.31337e-05, 0.0000000E+000, 0.076587
 870, 49.0001, 0.996237, 1.44998e-05, 0.0000000E+000, 0.0796201
 900, 50.0001, 0.99578, 1.59624e-05, 0.0000000E+000, 0.0828659
 930, 51.0001, 0.995278, 1.75185e-05, 0.0000000E+000, 0.0863168
 960, 52.0001, 0.994728, 1.9162e-05, 0.0000000E+000, 0.0899588
 990, 53.0001, 0.994127, 2.08834e-05, 0.0000000E+000, 0.09377
 1020, 54.0001, 0.993474, 2.26693e-05, 0.0000000E+000, 0.0977197
 1050, 55.0001, 0.992767, 2.45015e-05, 0.0000000E+000, 0.101767
 1080, 56.0001, 0.992004, 2.63566e-05, 0.0000000E+000, 0.105858
 1110, 57.0001, 0.991185, 2.82058e-05, 0.0000000E+000, 0.109927
 1140, 58.0001, 0.990312, 3.0014e-05, 0.0000000E+000, 0.113897
 1170, 59.0001, 0.989385, 3.17404e-05, 0.0000000E+000, 0.117674
 1200, 60.0001, 0.988409, 3.33383e-05, 0.0000000E+000, 0.121153
 1230, 61.0001, 0.987387, 3.47561e-05, 0.0000000E+000, 0.124218
 1260, 62.0001, 0.986326, 3.59385e-05, 0.0000000E+000, 0.126745
 1290, 63.0001, 0.985233, 3.68283e-05, 0.0000000E+000, 0.128606
 1320, 64.0001, 0.98412, 3.73693e-05, 0.0000000E+000, 0.129674
 1350, 65.0001, 0.982995, 3.75093e-05, 0.0000000E+000, 0.129834
 1380, 66.0001, 0.981873, 3.72041e-05, 0.0000000E+000, 0.128986
 1410, 67.0001, 0.980768, 3.6422e-05, 0.0000000E+000, 0.127062
 1440, 68.0001, 0.979693, 3.5148e-05, 0.0000000E+000, 0.124029
 1470, 69.0001, 0.978664, 3.3388e-05, 0.0000000E+000, 0.119902
 1500, 70.0001, 0.977694, 3.11719e-05, 0.0000000E+000, 0.114752
 1530, 71.0001, 0.976798, 2.85552e-05, 0.0000000E+000, 0.108706
 1560, 72.0001, 0.975984, 2.56186e-05, 0.0000000E+000, 0.101947
 1590, 73.0001, 0.975263, 2.24643e-05, 0.0000000E+000, 0.0947086
 1620, 74.0001, 0.974637, 1.92104e-05, 0.0000000E+000, 0.0872584
 1650, 75.0001, 0.97411, 1.59822e-05, 0.0000000E+000, 0.07988
 1680, 76.0001, 0.973677, 1.29016e-05, 0.0000000E+000, 0.0728489
 1710, 77.0001, 0.973333, 1.00765e-05, 0.0000000E+000, 0.0664084
 1740, 78.0001, 0.973069, 7.59038e-06, 0.0000000E+000, 0.060746
 1770, 79.0001, 0.972874, 5.49563e-06, 0.0000000E+000, 0.0559788
 1800, 80.0001, 0.972735, 3.81018e-06, 0.0000000E+000, 0.0521458
 1830, 81.0001, 0.972641, 2.51929e-06, 0.0000000E+000, 0.0492118
 1860, 82.0001, 0.972581, 1.58158e-06, 0.0000000E+000, 0.0470816
 1890, 83.0001, 0.972543, 9.38173e-07, 0.0000000E+000, 0.0456206
 1920, 84.0001, 0.972522, 5.2309e-07, 0.0000000E+000, 0.0446784
 1950, 85.0001, 0.97251, 2.72579e-07, 0.0000000E+000, 0.04411
 1980, 86.0001, 0.972505, 1.31928e-07, 0.0000000E+000, 0.0437909
 2010, 87.0001, 0.972502, 5.89092e-08, 0.0000000E+000, 0.0436254
 2040, 88.0001, 0.972501, 2.40911e-08, 0.0000000E+000, 0.0435464
 2070, 89.0001, 0.9725, 8.95183e-09, 0.0000000E+000, 0.0435121
 2100, 90.0001, 0.9725, 2.99648e-09, 0.0000000E+000, 0.0434986
 2130, 91.0001, 0.9725, 8.95175e-10, 0.0000000E+000, 0.0434938
 2160, 92.0001, 0.9725, 2.36271e-10, 0.0000000E+000, 0.0434924
 2190, 93.0001, 0.9725, 5.44967e-11, 0.0000000E+000, 0.0434919
 2220, 94.0001, 0.9725, 1.08553e-11, 0.0000000E+000, 0.0434918
 2250, 95.0001, 0.9725, 1.84359e-12, 0.0000000E+000, 0.0434918
 2280, 96.0001, 0.9725, 2.63279e-13, 0.0000000E+000, 0.0434918
 2310, 97.0001, 0.9725, 3.11454e-14, 0.0000000E+000, 0.0434918
 2340, 98.0001, 0.9725, 3.00311e-15, 0.0000000E+000, 0.0434918
 2370, 99.0001, 0.9725, 2.31931e-16, 0.0000000E+000, 0.0434918
 2400, 100, 0.9725, 1.40786e-17, 0.0000000E+000, 0.0434918
 2430, 101, 0.9725, 6.58164e-19, 0.0000000E+000, 0.0434918
 2460, 102, 0.9725, 2.31818e-20, 0.0000000E+000, 0.0434918
 2490, 103, 0.9725, 6.00778e-22, 0.0000000E+000, 0.0434918
 2520, 104, 0.9725, 1.11675e-23, 0.0000000E+000, 0.0434918
 2550, 105, 0.9725, 1.44856e-25, 0.0000000E+000, 0.0434918
 2580, 106, 0.9725, 1.27292e-27, 0.0000000E+000, 0.0434918
 2610, 107, 0.9725, 7.34029e-30, 0.0000000E+000, 0.0434918
 2640, 108, 0.9725, 2.68402e-32, 0.0000000E+000, 0.0434918
 2670, 109, 0.9725, 5.99802e-35, 0.0000000E+000, 0.0434918
 2700, 110, 0.9725, 7.87341e-38, 0.0000000E+000, 0.0434918
 2730, 111, 0.9725, 0.0000000E+000, 0.0000000E+000, 0.0434918
 2760, 112, 0.9725, 0.0000000E+000, 0.0000000E+000, 0.0434918
 2790, 113, 0.9725, 0.0000000E+000, 0.0000000E+000, 0.0434918
 2820, 114, 0.9725, 0.0000000E+000, 0.0000000E+000, 0.0434918
 2850, 115, 0.9725, 0.0000000E+000, 1.34531e-38, 0.0434918
 2880, 116, 0.9725, 0.0000000E+000, 1.79906e-38, 0.0434918
 2910, 117, 0.9725, 0.0000000E+000, 2.40227e-38, 0.0434918
 2940, 118, 0.9725, 0.0000000E+000, 3.20298e-38, 0.0434918
 2970, 119, 0.9725, 0.0000000E+000, 4.26432e-38, 0.0434918
 3000, 120, 0.9725, 0.0000000E+000, 5.66909e-38, 0.0434918
 3030, 121, 0.9725, 0.0000000E+000, 7.52574e-38, 0.0434918
 3060, 122, 0.9725, 0.0000000E+000, 9.97614e-38, 0.0434918
 3090, 123, 0.9725, 0.0000000E+000, 1.32056e-37, 0.0434918
 3120, 124, 0.9725, 0.0000000E+000, 1.74558e-37, 0.0434918
 3150, 125, 0.9725, 0.0000000E+000, 2.30416e-37, 0.0434918
 3180, 126, 0.9725, 0.0000000E+000, 3.03726e-37, 0.0434918
 3210, 127, 0.9725, 0.0000000E+000, 3.99808e-37, 0.0434918
 3240, 128, 0.9725, 0.0000000E+000, 5.25564e-37, 0.0434918
 3270, 129, 0.9725, 0.0000000E+000, 6.89936e-37, 0.0434918
 3300, 130, 0.9725, 0.0000000E+000, 9.04495e-37, 0.0434918
 3330, 131, 0.9725, 0.0000000E+000, 1.18419e-36, 0.0434918
 3360, 132, 0.9725, 0.0000000E+000, 1.54831e-36, 0.0434918
 3390, 133, 0.9725, 0.0000000E+000, 2.02173e-36, 0.0434918
 3420, 134, 0.9725, 0.0000000E+000, 2.63645e-36, 0.0434918
 3450, 135, 0.9725, 0.0000000E+000, 3.43359e-36, 0.0434918
 3480, 136, 0.9725, 0.0000000E+000, 4.466e-36, 0.0434918
 3510, 137, 0.9725, 0.0000000E+000, 5.80138e-36, 0.0434918
 3540, 138, 0.9725, 0.0000000E+000, 7.52646e-36, 0.0434918
 3570, 139, 0.9725, 0.0000000E+000, 9.75219e-36, 0.0434918
 3600, 140, 0.9725, 0.0000000E+000, 1.26203e-35, 0.0434918
 3630, 141, 0.9725, 0.0000000E+000, 1.63115e-35, 0.0434918
 3660, 142, 0.9725, 0.0000000E+000, 2.10564e-35, 0.0434918
 3690, 143, 0.9725, 0.0000000E+000, 2.71482e-35, 0.0434918
 3720, 144, 0.9725, 0.0000000E+000, 3.49597e-35, 0.0434918
 3750, 145, 0.9725, 0.0000000E+000, 4.49645e-35, 0.0434918
 3780, 146, 0.9725, 0.0000000E+000, 5.7763e-35, 0.0434918
 3810, 147, 0.9725, 0.0000000E+000, 7.41161e-35, 0.0434918
 3840, 148, 0.9725, 0.0000000E+000, 9.49862e-35, 0.0434918
 3870, 149, 0.9725, 0.0000000E+000, 1.2159e-34, 0.0434918
 3900, 150, 0.9725, 0.0000000E+000, 1.55464e-34, 0.0434918
 3930, 151, 0.9725, 0.0000000E+000, 1.98544e-34, 0.0434918
 3960, 152, 0.9725, 0.0000000E+000, 2.53271e-34, 0.0434918
 3990, 153, 0.9725, 0.0000000E+000, 3.22714e-34, 0.0434918
 4020, 154, 0.9725, 0.0000000E+000, 4.1073e-34, 0.0434918
 4050, 155, 0.9725, 1.30541e-38, 5.22163e-34, 0.0434918
 4080, 156, 0.9725, 1.65772e-38, 6.63087e-34, 0.0434918
 4110, 157, 0.9725, 2.10277e-38, 8.41108e-34, 0.0434918
 4140, 158, 0.9725, 2.66437e-38, 1.06575e-33, 0.0434918
 4170, 159, 0.9725, 3.37226e-38, 1.3489e-33, 0.0434918
 4200, 160, 0.9725, 4.26359e-38, 1.70544e-33, 0.0434918
 4230, 161, 0.9725, 5.38469e-38, 2.15387e-33, 0.0434918
 4260, 162, 0.9725, 6.79328e-38, 2.71731e-33, 0.0434918
 4290, 163, 0.9725, 8.56122e-38, 3.42449e-33, 0.0434918
 4320, 164, 0.9725, 1.07779e-37, 4.31114e-33, 0.0434918
 4350, 165, 0.9725, 1.35542e-37, 5.42166e-33, 0.0434918
 4380, 166, 0.9725, 1.70278e-37, 6.81114e-33, 0.0434918
 4410, 167, 0.9725, 2.13696e-37, 8.54784e-33, 0.0434918
 4440, 168, 0.9725, 2.67908e-37, 1.07163e-32, 0.0434918
 4470, 169, 0.9725, 3.3553e-37, 1.34212e-32, 0.0434918
 4500, 170, 0.9725, 4.19793e-37, 1.67917e-32, 0.0434918
 4530, 171, 0.9725, 5.24688e-37, 2.09875e-32, 0.0434918
 4560, 172, 0.9725, 6.55137e-37, 2.62055e-32, 0.0434918
 4590, 173, 0.9725, 8.17204e-37, 3.26882e-32, 0.0434918
 4620, 174, 0.9725, 1.01836e-36, 4.07342e-32, 0.0434918
 4650, 175, 0.9725, 1.26778e-36, 5.0711e-32, 0.0434918
 4680, 176, 0.9725, 1.57674e-36, 6.30698e-32, 0.0434918
 4710, 177, 0.9725, 1.95911e-36, 7.83645e-32, 0.0434918
 4740, 178, 0.9725, 2.43187e-36, 9.72746e-32, 0.0434918
 4770, 179, 0.9725, 3.01581e-36, 1.20633e-31, 0.0434918
 4800, 180, 0.9725, 3.73643e-36, 1.49457e-31, 0.0434918
 4830, 181, 0.9725, 4.62487e-36, 1.84995e-31, 0.0434918
 4860, 182, 0.9725, 5.7192e-36, 2.28768e-31, 0.0434918
 4890, 183, 0.9725, 7.06588e-36, 2.82635e-31, 0.0434918
 4920, 184, 0.9725, 8.72158e-36, 3.48863e-31, 0.0434918
 4950, 185, 0.9725, 1.07554e-35, 4.30215e-31, 0.0434918
 4980, 186, 0.9725, 1.32513e-35, 5.30053e-31, 0.0434918
 5010, 187, 0.9725, 1.63117e-35, 6.52468e-31, 0.0434918
 5040, 188, 0.9725, 2.00608e-35, 8.0243e-31, 0.0434918
 5070, 189, 0.9725, 2.46494e-35, 9.85977e-31, 0.0434918
 5100, 190, 0.9725, 3.02608e-35, 1.21043e-30, 0.0434918
 5130, 191, 0.9725, 3.71167e-35, 1.48467e-30, 0.0434918
 5160, 192, 0.9725, 4.5486e-35, 1.81944e-30, 0.0434918
 5190, 193, 0.9725, 5.56938e-35, 2.22775e-30, 0.0434918
 5220, 194, 0.9725, 6.81333e-35, 2.72533e-30, 0.0434918
 5250, 195, 0.9725, 8.32795e-35, 3.33118e-30, 0.0434918
 5280, 196, 0.9725, 1.01706e-34, 4.06823e-30, 0.0434918
 5310, 197, 0.9725, 1.24103e-34, 4.96413e-30, 0.0434918
 5340, 198, 0.9725, 1.51305e-34, 6.05221e-30, 0.0434918
 5370, 199, 0.9725, 1.84315e-34, 7.3726e-30, 0.0434918
 5400, 200, 0.9725, 2.24339e-34, 8.97355e-30, 0.0434918
 5430, 201, 0.9725, 2.72828e-34, 1.09131e-29, 0.0434918
 5460, 202, 0.9725, 3.31524e-34, 1.3261e-29, 0.0434918
 5490, 203, 0.9725, 4.02518e-34, 1.61007e-29, 0.0434918
 5520, 204, 0.9725, 4.88319e-34, 1.95327e-29, 0.0434918
 5550, 205, 0.9725, 5.91929e-34, 2.36772e-29, 0.0434918
 5580, 206, 0.9725, 7.16948e-34, 2.86779e-29, 0.0434918
 5610, 207, 0.9725, 8.67678e-34, 3.47071e-29, 0.0434918
 5640, 208, 0.9725, 1.04927e-33, 4.19706e-29, 0.0434918
 5670, 209, 0.9725, 1.26786e-33, 5.07142e-29, 0.0434918
 5700, 210, 0.9725, 1.53078e-33, 6.12314e-29, 0.0434918
 5730, 211, 0.9725, 1.8468e-33, 7.3872e-29, 0.0434918
 5760, 212, 0.9725, 2.22633e-33, 8.90533e-29, 0.0434918
 5790, 213, 0.9725, 2.6818e-33, 1.07272e-28, 0.0434918
 5820, 214, 0.9725, 3.22798e-33, 1.29119e-28, 0.0434918
 5850, 215, 0.9725, 3.88244e-33, 1.55298e-28, 0.0434918
 5880, 216, 0.9725, 4.66607e-33, 1.86643e-28, 0.0434918
 5910, 217, 0.9725, 5.60367e-33, 2.24147e-28, 0.0434918
 5940, 218, 0.9725, 6.72465e-33, 2.68986e-28, 0.0434918
 5970, 219, 0.9725, 8.06389e-33, 3.22556e-28, 0.0434918
 6000, 220, 0.9725, 9.66273e-33, 3.86509e-28, 0.0434918
 6030, 221, 0.9725, 1.15701e-32, 4.62804e-28, 0.0434918
 6060, 222, 0.9725, 1.38439e-32, 5.53756e-28, 0.0434918
 6090, 223, 0.9725, 1.65526e-32, 6.62103e-28, 0.0434918
 6120, 224, 0.9725, 1.9777e-32, 7.91081e-28, 0.0434918
 6150, 225, 0.9725, 2.36127e-32, 9.44507e-28, 0.0434918
 6180, 226, 0.9725, 2.81723e-32, 1.12689e-27, 0.0434918
 6210, 227, 0.9725, 3.35885e-32, 1.34354e-27, 0.0434918
 6240, 228, 0.9725, 4.00181e-32, 1.60072e-27, 0.0434918
 6270, 229, 0.9725, 4.76451e-32, 1.9058e-27, 0.0434918
 6300, 230, 0.9725, 5.66864e-32, 2.26745e-27, 0.0434918
 6330, 231, 0.9725, 6.73969e-32, 2.69588e-27, 0.0434918
 6360, 232, 0.9725, 8.00762e-32, 3.20305e-27, 0.0434918
 6390, 233, 0.9725, 9.50762e-32, 3.80305e-27, 0.0434918
 6420, 234, 0.9725, 1.12809e-31, 4.51238e-27, 0.0434918
 6450, 235, 0.9725, 1.3376e-31, 5.35041e-27, 0.0434918
 6480, 236, 0.9725, 1.58496e-31, 6.33984e-27, 0.0434918
 6510, 237, 0.9725, 1.87681e-31, 7.50724e-27, 0.0434918
 6540, 238, 0.9725, 2.22093e-31, 8.88372e-27, 0.0434918
 6570, 239, 0.9725, 2.62642e-31, 1.05057e-26, 0.0434918
 6600, 240, 0.9725, 3.10391e-31, 1.24157e-26, 0.0434918
 6630, 241, 0.9725, 3.66584e-31, 1.46633e-26, 0.0434918
 6660, 242, 0.9725, 4.32669e-31, 1.73068e-26, 0.0434918
 6690, 243, 0.9725, 5.1034e-31, 2.04136e-26, 0.0434918
 6720, 244, 0.9725, 6.0157e-31, 2.40628e-26, 0.0434918
 6750, 245, 0.9725, 7.08658e-31, 2.83463e-26, 0.0434918
 6780, 246, 0.9725, 8.34283e-31, 3.33713e-26, 0.0434918
 6810, 247, 0.9725, 9.81562e-31, 3.92625e-26, 0.0434918
 6840, 248, 0.9725, 1.15412e-30, 4.61648e-26, 0.0434918
 6870, 249, 0.9725, 1.35617e-30, 5.42469e-26, 0.0434918
 6900, 250, 0.9725, 1.59262e-30, 6.37046e-26, 0.0434918
 6930, 251, 0.9725, 1.86913e-30, 7.47654e-26, 0.0434918
 6960, 252, 0.9725, 2.19233e-30, 8.76931e-26, 0.0434918
 6990, 253, 0.9725, 2.56984e-30, 1.02794e-25, 0.0434918
 7020, 254, 0.9725, 3.01056e-30, 1.20422e-25, 0.0434918
 7050, 255, 0.9725, 3.52473e-30, 1.40989e-25, 0.0434918
 7080, 256, 0.9725, 4.12427e-30, 1.64971e-25, 0.0434919
 7110, 257, 0.9725, 4.82292e-30, 1.92917e-25, 0.0434918
 7140, 258, 0.9725, 5.6366e-30, 2.25464e-25, 0.0434918
 7170, 259, 0.9725, 6.5837e-30, 2.63348e-25, 0.0434918
 7200, 260, 0.9725, 7.68546e-30, 3.07419e-25, 0.0434918
 7230, 261, 0.9725, 8.96641e-30, 3.58656e-25, 0.0434918
 7260, 262, 0.9725, 1.04548e-29, 4.18193e-25, 0.0434918
 7290, 263, 0.9725, 1.21833e-29, 4.87333e-25, 0.0434918
 7320, 264, 0.9725, 1.41895e-29, 5.6758e-25, 0.0434918
 7350, 265, 0.9725, 1.65167e-29, 6.60668e-25, 0.0434918
 7380, 266, 0.9725, 1.92147e-29, 7.68589e-25, 0.0434918
 7410, 267, 0.9725, 2.2341e-29, 8.93639e-25, 0.0434919
 7440, 268, 0.9725, 2.59614e-29, 1.03846e-24, 0.0434918
 7470, 269, 0.9725, 3.01518e-29, 1.20607e-24, 0.0434918
 7500, 270, 0.9725, 3.49993e-29, 1.39997e-24, 0.0434918
 7530, 271, 0.9725, 4.06038e-29, 1.62415e-24, 0.0434918
 7560, 272, 0.9725, 4.70802e-29, 1.88321e-24, 0.0434918
 7590, 273, 0.9725, 5.456e-29, 2.1824e-24, 0.0434918
 7620, 274, 0.9725, 6.31941e-29, 2.52776e-24, 0.0434918
 7650, 275, 0.9725, 7.31552e-29, 2.92621e-24, 0.0434918
 7680, 276, 0.9725, 8.46414e-29, 3.38566e-24, 0.0434918
 7710, 277, 0.9725, 9.78792e-29, 3.91517e-24, 0.0434919
 7740, 278, 0.9725, 1.13128e-28, 4.5251e-24, 0.0434918
 7770, 279, 0.9725, 1.30683e-28, 5.22732e-24, 0.0434918
 7800, 280, 0.9725, 1.50884e-28, 6.03536e-24, 0.0434918
 7830, 281, 0.9725, 1.74117e-28, 6.96469e-24, 0.0434918
 7860, 282, 0.9725, 2.00824e-28, 8.03298e-24, 0.0434918
 7890, 283, 0.9725, 2.31509e-28, 9.26037e-24, 0.0434918
 7920, 284, 0.9725, 2.66746e-28, 1.06699e-23, 0.0434918
 7950, 285, 0.9725, 3.07191e-28, 1.22876e-23, 0.0434918
 7980, 286, 0.9725, 3.53589e-28, 1.41436e-23, 0.0434918
 8010, 287, 0.9725, 4.0679e-28, 1.62716e-23, 0.0434918
 8040, 288, 0.9725, 4.67763e-28, 1.87105e-23, 0.0434918
 8070, 289, 0.9725, 5.37608e-28, 2.15043e-23, 0.0434918
 8100, 290, 0.9725, 6.17576e-28, 2.4703e-23, 0.0434918
 8130, 291, 0.9725, 7.0909e-28, 2.83636e-23, 0.0434918
 8160, 292, 0.9725, 8.13768e-28, 3.25507e-23, 0.0434918
 8190, 293, 0.9725, 9.33444e-28, 3.73378e-23, 0.0434918
 8220, 294, 0.9725, 1.0702e-27, 4.28081e-23, 0.0434918
 8250, 295, 0.9725, 1.22641e-27, 4.90563e-23, 0.0434918
 8280, 296, 0.9725, 1.40474e-27, 5.61895e-23, 0.0434918
 8310, 297, 0.9725, 1.60823e-27, 6.43293e-23, 0.0434918
 8340, 298, 0.9725, 1.84033e-27, 7.36134e-23, 0.0434918
 8370, 299, 0.9725, 2.10494e-27, 8.41977e-23, 0.0434918
 8400, 300, 0.9725, 2.40647e-27, 9.62587e-23, 0.0434919
 8430, 301, 0.9725, 2.7499e-27, 1.09996e-22, 0.0434918
 8460, 302, 0.9725, 3.14089e-27, 1.25636e-22, 0.0434918
 8490, 303, 0.9725, 3.58582e-27, 1.43433e-22, 0.0434918
 8520, 304, 0.9725, 4.0919e-27, 1.63676e-22, 0.0434918
 8550, 305, 0.9725, 4.66726e-27, 1.86691e-22, 0.0434918
 8580, 306, 0.9725, 5.32111e-27, 2.12845e-22, 0.0434918
 8610, 307, 0.9725, 6.06383e-27, 2.42553e-22, 0.0434919
 8640, 308, 0.9725, 6.9071e-27, 2.76284e-22, 0.0434918
 8670, 309, 0.9725, 7.86412e-27, 3.14565e-22, 0.0434918
 8700, 310, 0.9725, 8.94976e-27, 3.5799e-22, 0.0434918
 8730, 311, 0.9725, 1.01808e-26, 4.0723e-22, 0.0434918
 8760, 312, 0.9725, 1.1576e-26, 4.63039e-22, 0.0434918
 8790, 313, 0.9725, 1.31566e-26, 5.26266e-22, 0.0434918
 8820, 314, 0.9725, 1.49466e-26, 5.97865e-22, 0.0434918
 8850, 315, 0.9725, 1.69728e-26, 6.78911e-22, 0.0434918
 8880, 316, 0.9725, 1.92653e-26, 7.70611e-22, 0.0434918
 8910, 317, 0.9725, 2.1858e-26, 8.74321e-22, 0.0434918
 8940, 318, 0.9725, 2.47891e-26, 9.91564e-22, 0.0434918
 8970, 319, 0.9725, 2.81013e-26, 1.12405e-21, 0.0434918
 9000, 320, 0.9725, 3.18426e-26, 1.2737e-21, 0.0434918
 9030, 321, 0.9725, 3.60668e-26, 1.44267e-21, 0.0434918
 9060, 322, 0.9725, 4.08343e-26, 1.63337e-21, 0.0434918
 9090, 323, 0.9725, 4.62127e-26, 1.84851e-21, 0.0434918
 9120, 324, 0.9725, 5.22779e-26, 2.09112e-21, 0.0434918
 9150, 325, 0.9725, 5.91147e-26, 2.36459e-21, 0.0434918
 9180, 326, 0.9725, 6.68182e-26, 2.67273e-21, 0.0434918
 9210, 327, 0.9725, 7.54948e-26, 3.01979e-21, 0.0434918
 9240, 328, 0.9725, 8.52634e-26, 3.41054e-21, 0.0434918
 9270, 329, 0.9725, 9.62571e-26, 3.85029e-21, 0.0434918
 9300, 330, 0.9725, 1.08625e-25, 4.34499e-21, 0.0434918
 9330, 331, 0.9725, 1.22532e-25, 4.90129e-21, 0.0434918
 9360, 332, 0.9725, 1.38165e-25, 5.52661e-21, 0.0434918
 9390, 333, 0.9725, 1.55731e-25, 6.22925e-21, 0.0434918
 9420, 334, 0.9725, 1.75461e-25, 7.01845e-21, 0.0434918
 9450, 335, 0.9725, 1.97613e-25, 7.90453e-21, 0.0434918
 9480, 336, 0.9725, 2.22475e-25, 8.89901e-21, 0.0434918
 9510, 337, 0.9725, 2.50368e-25, 1.00147e-20, 0.0434918
 9540, 338, 0.9725, 2.81649e-25, 1.12659e-20, 0.0434918
 9570, 339, 0.9725, 3.16716e-25, 1.26686e-20, 0.0434918
 9600, 340, 0.9725, 3.56012e-25, 1.42405e-20, 0.0434919
 9630, 341, 0.9725, 4.00033e-25, 1.60013e-20, 0.0434918
 9660, 342, 0.9725, 4.49326e-25, 1.7973e-20, 0.0434918
 9690, 343, 0.9725, 5.04502e-25, 2.01801e-20, 0.0434918
 9720, 344, 0.9725, 5.66242e-25, 2.26497e-20, 0.0434918
 9750, 345, 0.9725, 6.353e-25, 2.5412e-20, 0.0434918
 9780, 346, 0.9725, 7.12515e-25, 2.85006e-20, 0.0434918
 9810, 347, 0.9725, 7.98819e-25, 3.19528e-20, 0.0434918
 9840, 348, 0.9725, 8.95247e-25, 3.58099e-20, 0.0434918
 9870, 349, 0.9725, 1.00295e-24, 4.01179e-20, 0.0434918
 9900, 350, 0.9725, 1.1232e-24, 4.49279e-20, 0.0434918
 9930, 351, 0.9725, 1.25741e-24, 5.02962e-20, 0.0434918
 9960, 352, 0.9725, 1.40714e-24, 5.62857e-20, 0.0434918
 9990, 353, 0.9725, 1.57415e-24, 6.29659e-20, 0.0434919
 10020, 354, 0.9725, 1.76034e-24, 7.04136e-20, 0.0434918
 10050, 355, 0.9725, 1.96786e-24, 7.87143e-20, 0.0434918
 10080, 356, 0.9725, 2.19906e-24, 8.79623e-20, 0.0434919
 10110, 357, 0.9725, 2.45655e-24, 9.82622e-20, 0.0434918
 10140, 358, 0.9725, 2.74324e-24, 1.0973e-19, 0.0434918
 10170, 359, 0.9725, 3.06231e-24, 1.22493e-19, 0.0434919
 10200, 360, 0.9725, 3.41731e-24, 1.36692e-19, 0.0434918
 10230, 361, 0.9725, 3.81214e-24, 1.52486e-19, 0.0434918
 10260, 362, 0.9725, 4.25113e-24, 1.70045e-19, 0.0434918
 10290, 363, 0.9725, 4.73904e-24, 1.89562e-19, 0.0434918
 10320, 364, 0.9725, 5.28115e-24, 2.11246e-19, 0.0434918
 10350, 365, 0.9725, 5.88328e-24, 2.35331e-19, 0.0434918
 10380, 366, 0.9725, 6.55184e-24, 2.62074e-19, 0.0434918
 10410, 367, 0.9725, 7.29393e-24, 2.91757e-19, 0.0434918
 10440, 368, 0.9725, 8.11735e-24, 3.24694e-19, 0.0434918
 10470, 369, 0.9725, 9.03071e-24, 3.61229e-19, 0.0434918
 10500, 370, 0.9725, 1.00435e-23, 4.01741e-19, 0.0434919
 10530, 371, 0.9725, 1.11662e-23, 4.46649e-19, 0.0434918
 10560, 372, 0.9725, 1.24104e-23, 4.96415e-19, 0.0434918
 10590, 373, 0.9725, 1.37886e-23, 5.51545e-19, 0.0434918
 10620, 374, 0.9725, 1.53149e-23, 6.12598e-19, 0.0434918
 10650, 375, 0.9725, 1.70047e-23, 6.80188e-19, 0.0434918
 10680, 376, 0.9725, 1.88748e-23, 7.54993e-19, 0.0434918
 10710, 377, 0.9725, 2.09439e-23, 8.37756e-19, 0.0434918
 10740, 378, 0.9725, 2.32324e-23, 9.29294e-19, 0.0434918
 10770, 379, 0.9725, 2.57627e-23, 1.03051e-18, 0.0434918
 10800, 380, 0.9725, 2.85595e-23, 1.14238e-18, 0.0434918
 10830, 381, 0.9725, 3.165e-23, 1.266e-18, 0.0434918
 10860, 382, 0.9725, 3.5064e-23, 1.40256e-18, 0.0434918
 10890, 383, 0.9725, 3.88341e-23, 1.55336e-18, 0.0434918
 10920, 384, 0.9725, 4.29961e-23, 1.71984e-18, 0.0434918
 10950, 385, 0.9725, 4.75895e-23, 1.90358e-18, 0.0434918
 10980, 386, 0.9725, 5.26574e-23, 2.1063e-18, 0.0434918
 11010, 387, 0.9725, 5.82472e-23, 2.32989e-18, 0.0434918
 11040, 388, 0.9725, 6.44106e-23, 2.57643e-18, 0.0434918
 11070, 389, 0.9725, 7.12046e-23, 2.84819e-18, 0.0434919
 11100, 390, 0.9725, 7.86915e-23, 3.14766e-18, 0.0434918
 11130, 391, 0.9725, 8.69393e-23, 3.47757e-18, 0.0434918
 11160, 392, 0.9725, 9.60229e-23, 3.84092e-18, 0.0434918
 11190, 393, 0.9725, 1.06024e-22, 4.24096e-18, 0.0434918
 11220, 394, 0.9725, 1.17032e-22, 4.68127e-18, 0.0434918
 11250, 395, 0.9725, 1.29144e-22, 5.16577e-18, 0.0434918
 11280, 396, 0.9725, 1.42468e-22, 5.69874e-18, 0.0434918
 11310, 397, 0.9725, 1.57121e-22, 6.28485e-18, 0.0434918
 11340, 398, 0.9725, 1.73231e-22, 6.92923e-18, 0.0434918
 11370, 399, 0.9725, 1.90936e-22, 7.63745e-18, 0.0434918
 11400, 400, 0.9725, 2.10391e-22, 8.41562e-18, 0.0434918
 11430, 401, 0.9725, 2.3176e-22, 9.27042e-18, 0.0434918
 11460, 402, 0.9725, 2.55228e-22, 1.02091e-17, 0.0434918
 11490, 403, 0.9725, 2.80991e-22, 1.12396e-17, 0.0434918
 11520, 404, 0.9725, 3.09267e-22, 1.23707e-17, 0.0434918
 11550, 405, 0.9725, 3.40292e-22, 1.36117e-17, 0.0434918
 11580, 406, 0.9725, 3.74325e-22, 1.4973e-17, 0.0434918
 11610, 407, 0.9725, 4.11645e-22, 1.64658e-17, 0.0434918
 11640, 408, 0.9725, 4.5256e-22, 1.81024e-17, 0.0434919
 11670, 409, 0.9725, 4.97403e-22, 1.98961e-17, 0.0434918
 11700, 410, 0.9725, 5.46539e-22, 2.18616e-17, 0.0434918
 11730, 411, 0.9725, 6.00363e-22, 2.40145e-17, 0.0434918
 11760, 412, 0.9725, 6.59307e-22, 2.63723e-17, 0.0434918
 11790, 413, 0.9725, 7.23841e-22, 2.89536e-17, 0.0434918
 11820, 414, 0.9725, 7.94475e-22, 3.1779e-17, 0.0434918
 11850, 415, 0.9725, 8.71766e-22, 3.48706e-17, 0.0434918
 11880, 416, 0.9725, 9.56319e-22, 3.82527e-17, 0.0434918
 11910, 417, 0.9725, 1.04879e-21, 4.19516e-17, 0.0434918
 11940, 418, 0.9725, 1.1499e-21, 4.59959e-17, 0.0434918
 11970, 419, 0.9725, 1.26042e-21, 5.04166e-17, 0.0434919
 12000, 420, 0.9725, 1.38119e-21, 5.52476e-17, 0.0434918
 12030, 421, 0.9725, 1.51314e-21, 6.05255e-17, 0.0434918
 12060, 422, 0.9725, 1.65726e-21, 6.62902e-17, 0.0434918
 12090, 423, 0.9725, 1.81463e-21, 7.25851e-17, 0.0434918
 12120, 424, 0.9725, 1.98642e-21, 7.9457e-17, 0.0434918
 12150, 425, 0.9725, 2.17392e-21, 8.69569e-17, 0.0434918
 12180, 426, 0.9725, 2.3785e-21, 9.51402e-17, 0.0434918
 12210, 427, 0.9725, 2.60167e-21, 1.04067e-16, 0.0434918
 12240, 428, 0.9725, 2.84505e-21, 1.13802e-16, 0.0434918
 12270, 429, 0.9725, 3.1104e-21, 1.24416e-16, 0.0434919
 12300, 430, 0.9725, 3.39964e-21, 1.35986e-16, 0.0434918
 12330, 431, 0.9725, 3.71484e-21, 1.48594e-16, 0.0434918
 12360, 432, 0.9725, 4.05824e-21, 1.6233e-16, 0.0434918
 12390, 433, 0.9725, 4.43228e-21, 1.77291e-16, 0.0434918
 12420, 434, 0.9725, 4.83958e-21, 1.93583e-16, 0.0434918
 12450, 435, 0.9725, 5.283e-21, 2.1132e-16, 0.0434918
 12480, 436, 0.9725, 5.76561e-21, 2.30625e-16, 0.0434918
 12510, 437, 0.9725, 6.29077e-21, 2.51631e-16, 0.0434918
 12540, 438, 0.9725, 6.86209e-21, 2.74483e-16, 0.0434918
 12570, 439, 0.9725, 7.48346e-21, 2.99338e-16, 0.0434918
 12600, 440, 0.9725, 8.15911e-21, 3.26364e-16, 0.0434918
 12630, 441, 0.9725, 8.89361e-21, 3.55744e-16, 0.0434918
 12660, 442, 0.9725, 9.69189e-21, 3.87676e-16, 0.0434918
 12690, 443, 0.9725, 1.05593e-20, 4.22372e-16, 0.0434918
 12720, 444, 0.9725, 1.15016e-20, 4.60063e-16, 0.0434918
 12750, 445, 0.9725, 1.2525e-20, 5.00999e-16, 0.0434918
 12780, 446, 0.9725, 1.36362e-20, 5.45447e-16, 0.0434918
 12810, 447, 0.9725, 1.48425e-20, 5.93699e-16, 0.0434918
 12840, 448, 0.9725, 1.61517e-20, 6.46068e-16, 0.0434918
 12870, 449, 0.9725, 1.75723e-20, 7.02891e-16, 0.0434918
 12900, 450, 0.9725, 1.91133e-20, 7.64534e-16, 0.0434918
 12930, 451, 0.9725, 2.07847e-20, 8.3139e-16, 0.0434918
 12960, 452, 0.9725, 2.25971e-20, 9.03883e-16, 0.0434919
 12990, 453, 0.9725, 2.45618e-20, 9.8247e-16, 0.0434918
 13020, 454, 0.9725, 2.66911e-20, 1.06765e-15, 0.0434918
 13050, 455, 0.9725, 2.89985e-20, 1.15994e-15, 0.0434918
 13080, 456, 0.9725, 3.14982e-20, 1.25993e-15, 0.0434918
 13110, 457, 0.9725, 3.42056e-20, 1.36822e-15, 0.0434918
 13140, 458, 0.9725, 3.71373e-20, 1.48549e-15, 0.0434918
 13170, 459, 0.9725, 4.03113e-20, 1.61245e-15, 0.0434919
 13200, 460, 0.9725, 4.37467e-20, 1.74987e-15, 0.0434918
 13230, 461, 0.9725, 4.74644e-20, 1.89858e-15, 0.0434918
 13260, 462, 0.9725, 5.14865e-20, 2.05946e-15, 0.0434918
 13290, 463, 0.9725, 5.58371e-20, 2.23349e-15, 0.0434918
 13320, 464, 0.9725, 6.05421e-20, 2.42168e-15, 0.0434918
 13350, 465, 0.9725, 6.56291e-20, 2.62516e-15, 0.0434918
 13380, 466, 0.9725, 7.1128e-20, 2.84512e-15, 0.0434918
 13410, 467, 0.9725, 7.70709e-20, 3.08283e-15, 0.0434918
 13440, 468, 0.9725, 8.34922e-20, 3.33969e-15, 0.0434918
 13470, 469, 0.9725, 9.04291e-20, 3.61716e-15, 0.0434918
 13500, 470, 0.9725, 9.79212e-20, 3.91685e-15, 0.0434918
 13530, 471, 0.9725, 1.06011e-19, 4.24046e-15, 0.0434918
 13560, 472, 0.9725, 1.14746e-19, 4.58982e-15, 0.0434918
 13590, 473, 0.9725, 1.24173e-19, 4.96692e-15, 0.0434918
 13620, 474, 0.9725, 1.34346e-19, 5.37386e-15, 0.0434918
 13650, 475, 0.9725, 1.45323e-19, 5.81292e-15, 0.0434918
 13680, 476, 0.9725, 1.57163e-19, 6.28653e-15, 0.0434918
 13710, 477, 0.9725, 1.69933e-19, 6.79731e-15, 0.0434918
 13740, 478, 0.9725, 1.83702e-19, 7.34807e-15, 0.0434919
 13770, 479, 0.9725, 1.98545e-19, 7.9418e-15, 0.0434918
 13800, 480, 0.9725, 2.14543e-19, 8.58174e-15, 0.0434918
 13830, 481, 0.9725, 2.31783e-19, 9.27133e-15, 0.0434918
 13860, 482, 0.9725, 2.50357e-19, 1.00143e-14, 0.0434918
 13890, 483, 0.9725, 2.70365e-19, 1.08146e-14, 0.0434918
 13920, 484, 0.9725, 2.91912e-19, 1.16765e-14, 0.0434918
 13950, 485, 0.9725, 3.15112e-19, 1.26045e-14, 0.0434918
 13980, 486, 0.9725, 3.40088e-19, 1.36035e-14, 0.0434918
 14010, 487, 0.9725, 3.66969e-19, 1.46788e-14, 0.0434918
 14040, 488, 0.9725, 3.95896e-19, 1.58359e-14, 0.0434918
 14070, 489, 0.9725, 4.27019e-19, 1.70808e-14, 0.0434919
 14100, 490, 0.9725, 4.60497e-19, 1.84199e-14, 0.0434918
 14130, 491, 0.9725, 4.96501e-19, 1.986e-14, 0.0434918
 14160, 492, 0.9725, 5.35215e-19, 2.14086e-14, 0.0434919
 14190, 493, 0.9725, 5.76835e-19, 2.30734e-14, 0.0434918
 14220, 494, 0.9725, 6.2157e-19, 2.48628e-14, 0.0434918
 14250, 495, 0.9725, 6.69643e-19, 2.67857e-14, 0.0434918
 14280, 496, 0.9725, 7.21296e-19, 2.88518e-14, 0.0434918
 14310, 497, 0.9725, 7.76782e-19, 3.10713e-14, 0.0434918
 14340, 498, 0.9725, 8.36376e-19, 3.3455e-14, 0.0434918
 14370, 499, 0.9725, 9.0037e-19, 3.60148e-14, 0.0434918
 14400, 500, 0.9725, 9.69075e-19, 3.8763e-14, 0.0434918
 14430, 501, 0.9725, 1.04282e-18, 4.1713e-14, 0.0434918
 14460, 502, 0.9725, 1.12197e-18, 4.4879e-14, 0.0434918
 14490, 503, 0.9725, 1.2069e-18, 4.82762e-14, 0.0434918
 14520, 504, 0.9725, 1.29802e-18, 5.19208e-14, 0.0434918
 14550, 505, 0.9725, 1.39575e-18, 5.58301e-14, 0.0434919
 14580, 506, 0.9725, 1.50056e-18, 6.00225e-14, 0.0434918
 14610, 507, 0.9725, 1.61295e-18, 6.45178e-14, 0.0434918
 14640, 508, 0.9725, 1.73342e-18, 6.9337e-14, 0.0434919
 14670, 509, 0.9725, 1.86256e-18, 7.45024e-14, 0.0434918
 14700, 510, 0.9725, 2.00095e-18, 8.00379e-14, 0.0434918
 14730, 511, 0.9725, 2.14922e-18, 8.5969e-14, 0.0434918
 14760, 512, 0.9725, 2.30807e-18, 9.23228e-14, 0.0434918
 14790, 513, 0.9725, 2.4782e-18, 9.91282e-14, 0.0434918
 14820, 514, 0.9725, 2.6604e-18, 1.06416e-13, 0.0434918
 14850, 515, 0.9725, 2.85548e-18, 1.14219e-13, 0.0434919
 14880, 516, 0.9725, 3.06431e-18, 1.22572e-13, 0.0434918
 14910, 517, 0.9725, 3.28782e-18, 1.31513e-13, 0.0434918
 14940, 518, 0.9725, 3.52702e-18, 1.41081e-13, 0.0434918
 14970, 519, 0.9725, 3.78294e-18, 1.51318e-13, 0.0434918
 15000, 520, 0.9725, 4.05671e-18, 1.62269e-13, 0.0434918
 15030, 521, 0.9725, 4.34954e-18, 1.73981e-13, 0.0434918
 15060, 522, 0.9725, 4.66268e-18, 1.86507e-13, 0.0434918
 15090, 523, 0.9725, 4.99749e-18, 1.999e-13, 0.0434918
 15120, 524, 0.9725, 5.35542e-18, 2.14217e-13, 0.0434918
 15150, 525, 0.9725, 5.73798e-18, 2.29519e-13, 0.0434918
 15180, 526, 0.9725, 6.14682e-18, 2.45873e-13, 0.0434918
 15210, 527, 0.9725, 6.58365e-18, 2.63346e-13, 0.0434918
 15240, 528, 0.9725, 7.05031e-18, 2.82012e-13, 0.0434918
 15270, 529, 0.9725, 7.54876e-18, 3.01951e-13, 0.0434918
 15300, 530, 0.9725, 8.08108e-18, 3.23243e-13, 0.0434918
 15330, 531, 0.9725, 8.64947e-18, 3.45979e-13, 0.0434918
 15360, 532, 0.9725, 9.25628e-18, 3.70251e-13, 0.0434918
 15390, 533, 0.9725, 9.90399e-18, 3.9616e-13, 0.0434918
 15420, 534, 0.9725, 1.05952e-17, 4.2381e-13, 0.0434918
 15450, 535, 0.9725, 1.13329e-17, 4.53314e-13, 0.0434918
 15480, 536, 0.9725, 1.21198e-17, 4.84792e-13, 0.0434918
 15510, 537, 0.9725, 1.29593e-17, 5.1837e-13, 0.0434918
 15540, 538, 0.9725, 1.38545e-17, 5.54182e-13, 0.0434918
 15570, 539, 0.9725, 1.48093e-17, 5.92371e-13, 0.0434918
 15600, 540, 0.9725, 1.58272e-17, 6.33087e-13, 0.0434918
 15630, 541, 0.9725, 1.69123e-17, 6.76491e-13, 0.0434918
 15660, 542, 0.9725, 1.80689e-17, 7.22754e-13, 0.0434918
 15690, 543, 0.9725, 1.93014e-17, 7.72055e-13, 0.0434918
 15720, 544, 0.9725, 2.06147e-17, 8.24586e-13, 0.0434918
 15750, 545, 0.9725, 2.20138e-17, 8.8055e-13, 0.0434918
 15780, 546, 0.9725, 2.3504e-17, 9.40161e-13, 0.0434918
 15810, 547, 0.9725, 2.50912e-17, 1.00365e-12, 0.0434918
 15840, 548, 0.9725, 2.67813e-17, 1.07125e-12, 0.0434918
 15870, 549, 0.9725, 2.85806e-17, 1.14323e-12, 0.0434918
 15900, 550, 0.9725, 3.04961e-17, 1.21984e-12, 0.0434918
 15930, 551, 0.9725, 3.25348e-17, 1.30139e-12, 0.0434918
 15960, 552, 0.9725, 3.47043e-17, 1.38817e-12, 0.0434918
 15990, 553, 0.9725, 3.70128e-17, 1.48051e-12, 0.0434918
 16020, 554, 0.9725, 3.94686e-17, 1.57874e-12, 0.0434918
 16050, 555, 0.9725, 4.20809e-17, 1.68324e-12, 0.0434918
 16080, 556, 0.9725, 4.48591e-17, 1.79436e-12, 0.0434918
 16110, 557, 0.9725, 4.78134e-17, 1.91254e-12, 0.0434919
 16140, 558, 0.9725, 5.09544e-17, 2.03818e-12, 0.0434918
 16170, 559, 0.9725, 5.42935e-17, 2.17174e-12, 0.0434918
 16200, 560, 0.9725, 5.78425e-17, 2.3137e-12, 0.0434918
 16230, 561, 0.9725, 6.16142e-17, 2.46457e-12, 0.0434918
 16260, 562, 0.9725, 6.56219e-17, 2.62488e-12, 0.0434918
 16290, 563, 0.9725, 6.98797e-17, 2.79519e-12, 0.0434918
 16320, 564, 0.9725, 7.44027e-17, 2.97611e-12, 0.0434918
 16350, 565, 0.9725, 7.92065e-17, 3.16826e-12, 0.0434918
 16380, 566, 0.9725, 8.43079e-17, 3.37232e-12, 0.0434918
 16410, 567, 0.9725, 8.97246e-17, 3.58898e-12, 0.0434918
 16440, 568, 0.9725, 9.54751e-17, 3.81901e-12, 0.0434918
 16470, 569, 0.9725, 1.01579e-16, 4.06317e-12, 0.0434918
 16500, 570, 0.9725, 1.08058e-16, 4.32231e-12, 0.0434918
 16530, 571, 0.9725, 1.14933e-16, 4.5973e-12, 0.0434918
 16560, 572, 0.9725, 1.22227e-16, 4.88908e-12, 0.0434918
 16590, 573, 0.9725, 1.29965e-16, 5.19861e-12, 0.0434918
 16620, 574, 0.9725, 1.38174e-16, 5.52694e-12, 0.0434918
 16650, 575, 0.9725, 1.46879e-16, 5.87516e-12, 0.0434917
 16680, 576, 0.9725, 1.56111e-16, 6.24443e-12, 0.0434918
 16710, 577, 0.9725, 1.65899e-16, 6.63594e-12, 0.0434918
 16740, 578, 0.9725, 1.76275e-16, 7.051e-12, 0.0434918
 16770, 579, 0.9725, 1.87274e-16, 7.49095e-12, 0.0434919
 16800, 580, 0.9725, 1.98931e-16, 7.95723e-12, 0.0434918
 16830, 581, 0.9725, 2.11283e-16, 8.45133e-12, 0.0434918
 16860, 582, 0.9725, 2.24371e-16, 8.97485e-12, 0.0434918
 16890, 583, 0.9725, 2.38237e-16, 9.52946e-12, 0.0434918
 16920, 584, 0.9725, 2.52923e-16, 1.01169e-11, 0.0434918
 16950, 585, 0.9725, 2.68478e-16, 1.07391e-11, 0.0434918
 16980, 586, 0.9725, 2.8495e-16, 1.1398e-11, 0.0434918
 17010, 587, 0.9725, 3.0239e-16, 1.20956e-11, 0.0434918
 17040, 588, 0.9725, 3.20853e-16, 1.28341e-11, 0.0434918
 17070, 589, 0.9725, 3.40398e-16, 1.36159e-11, 0.0434918
 17100, 590, 0.9725, 3.61083e-16, 1.44433e-11, 0.0434918
 17130, 591, 0.9725, 3.82972e-16, 1.53189e-11, 0.0434919
 17160, 592, 0.9725, 4.06134e-16, 1.62454e-11, 0.0434918
 17190, 593, 0.9725, 4.30638e-16, 1.72255e-11, 0.0434918
 17220, 594, 0.9725, 4.56559e-16, 1.82623e-11, 0.0434918
 17250, 595, 0.9725, 4.83974e-16, 1.9359e-11, 0.0434918
 17280, 596, 0.9725, 5.12967e-16, 2.05187e-11, 0.0434918
 17310, 597, 0.9725, 5.43625e-16, 2.1745e-11, 0.0434918
 17340, 598, 0.9725, 5.76038e-16, 2.30415e-11, 0.0434918
 17370, 599, 0.9725, 6.10302e-16, 2.44121e-11, 0.0434918
 17400, 600, 0.9725, 6.46519e-16, 2.58607e-11, 0.0434918
 17430, 601, 0.9725, 6.84794e-16, 2.73918e-11, 0.0434918
 17460, 602, 0.9725, 7.25241e-16, 2.90096e-11, 0.0434918
 17490, 603, 0.9725, 7.67975e-16, 3.0719e-11, 0.0434918
 17520, 604, 0.9725, 8.13122e-16, 3.25249e-11, 0.0434918
 17550, 605, 0.9725, 8.60811e-16, 3.44324e-11, 0.0434918
 17580, 606, 0.9725, 9.11178e-16, 3.64471e-11, 0.0434918
 17610, 607, 0.9725, 9.64368e-16, 3.85747e-11, 0.0434918
 17640, 608, 0.9725, 1.02053e-15, 4.08213e-11, 0.0434918
 17670, 609, 0.9725, 1.07983e-15, 4.31931e-11, 0.0434918
 17700, 610, 0.9725, 1.14242e-15, 4.56969e-11, 0.0434918
 17730, 611, 0.9725, 1.20849e-15, 4.83397e-11, 0.0434918
 17760, 612, 0.9725, 1.27822e-15, 5.11288e-11, 0.0434918
 17790, 613, 0.9725, 1.3518e-15, 5.4072e-11, 0.0434918
 17820, 614, 0.9725, 1.42943e-15, 5.71774e-11, 0.0434918
 17850, 615, 0.9725, 1.51134e-15, 6.04535e-11, 0.0434918
 17880, 616, 0.9725, 1.59773e-15, 6.39094e-11, 0.0434918
 17910, 617, 0.9725, 1.68886e-15, 6.75543e-11, 0.0434918
 17940, 618, 0.9725, 1.78496e-15, 7.13983e-11, 0.0434918
 17970, 619, 0.9725, 1.88629e-15, 7.54516e-11, 0.0434918
 18000, 620, 0.9725, 1.99313e-15, 7.97252e-11, 0.0434918
 18030, 621, 0.9725, 2.10576e-15, 8.42304e-11, 0.0434918
 18060, 622, 0.9725, 2.22448e-15, 8.89794e-11, 0.0434918
 18090, 623, 0.9725, 2.34961e-15, 9.39845e-11, 0.0434918
 18120, 624, 0.9725, 2.48148e-15, 9.92591e-11, 0.0434918
 18150, 625, 0.9725, 2.62042e-15, 1.04817e-10, 0.0434918
 18180, 626, 0.9725, 2.76682e-15, 1.10673e-10, 0.0434918
 18210, 627, 0.9725, 2.92103e-15, 1.16841e-10, 0.0434918
 18240, 628, 0.9725, 3.08347e-15, 1.23339e-10, 0.0434918
 18270, 629, 0.9725, 3.25456e-15, 1.30182e-10, 0.0434918
 18300, 630, 0.9725, 3.43473e-15, 1.37389e-10, 0.0434918
 18330, 631, 0.9725, 3.62443e-15, 1.44977e-10, 0.0434918
 18360, 632, 0.9725, 3.82416e-15, 1.52967e-10, 0.0434918
 18390, 633, 0.9725, 4.03443e-15, 1.61377e-10, 0.0434918
 18420, 634, 0.9725, 4.25574e-15, 1.7023e-10, 0.0434918
 18450, 635, 0.9725, 4.48868e-15, 1.79547e-10, 0.0434918
 18480, 636, 0.9725, 4.7338e-15, 1.89352e-10, 0.0434918
 18510, 637, 0.9725, 4.99173e-15, 1.99669e-10, 0.0434918
 18540, 638, 0.9725, 5.2631e-15, 2.10524e-10, 0.0434918
 18570, 639, 0.9725, 5.54858e-15, 2.21943e-10, 0.0434918
 18600, 640, 0.9725, 5.84887e-15, 2.33955e-10, 0.0434919
 18630, 641, 0.9725, 6.16469e-15, 2.46588e-10, 0.0434918
 18660, 642, 0.9725, 6.49683e-15, 2.59873e-10, 0.0434918
 18690, 643, 0.9725, 6.84607e-15, 2.73843e-10, 0.0434918
 18720, 644, 0.9725, 7.21327e-15, 2.88531e-10, 0.0434918
 18750, 645, 0.9725, 7.59929e-15, 3.03972e-10, 0.0434918
 18780, 646, 0.9725, 8.00507e-15, 3.20203e-10, 0.0434918
 18810, 647, 0.9725, 8.43156e-15, 3.37262e-10, 0.0434918
 18840, 648, 0.9725, 8.87977e-15, 3.55191e-10, 0.0434918
 18870, 649, 0.9725, 9.35075e-15, 3.7403e-10, 0.0434918
 18900, 650, 0.9725, 9.84562e-15, 3.93825e-10, 0.0434918
 18930, 651, 0.9725, 1.03655e-14, 4.14621e-10, 0.0434918
 18960, 652, 0.9725, 1.09117e-14, 4.36466e-10, 0.0434918
 18990, 653, 0.9725, 1.14853e-14, 4.59412e-10, 0.0434918
 19020, 654, 0.9725, 1.20877e-14, 4.8351e-10, 0.0434919
 19050, 655, 0.9725, 1.27204e-14, 5.08816e-10, 0.0434919
 19080, 656, 0.9725, 1.33847e-14, 5.35388e-10, 0.0434918
 19110, 657, 0.9725, 1.40822e-14, 5.63286e-10, 0.0434918
 19140, 658, 0.9725, 1.48143e-14, 5.92573e-10, 0.0434918
 19170, 659, 0.9725, 1.55829e-14, 6.23316e-10, 0.0434918
 19200, 660, 0.9725, 1.63895e-14, 6.55581e-10, 0.0434918
 19230, 661, 0.9725, 1.72361e-14, 6.89443e-10, 0.0434918
 19260, 662, 0.9725, 1.81244e-14, 7.24976e-10, 0.0434918
 19290, 663, 0.9725, 1.90564e-14, 7.62258e-10, 0.0434918
 19320, 664, 0.9725, 2.00343e-14, 8.01371e-10, 0.0434918
 19350, 665, 0.9725, 2.106e-14, 8.42402e-10, 0.0434918
 19380, 666, 0.9725, 2.2136e-14, 8.85439e-10, 0.0434918
 19410, 667, 0.9725, 2.32644e-14, 9.30576e-10, 0.0434918
 19440, 668, 0.9725, 2.44478e-14, 9.77911e-10, 0.0434918
 19470, 669, 0.9725, 2.56886e-14, 1.02755e-09, 0.0434918
 19500, 670, 0.9725, 2.69896e-14, 1.07959e-09, 0.0434918
 19530, 671, 0.9725, 2.83536e-14, 1.13414e-09, 0.0434917
 19560, 672, 0.9725, 2.97833e-14, 1.19133e-09, 0.0434918
 19590, 673, 0.9725, 3.12819e-14, 1.25128e-09, 0.0434918
 19620, 674, 0.9725, 3.28525e-14, 1.3141e-09, 0.0434918
 19650, 675, 0.9725, 3.44984e-14, 1.37994e-09, 0.0434917
 19680, 676, 0.9725, 3.6223e-14, 1.44892e-09, 0.0434918
 19710, 677, 0.9725, 3.80299e-14, 1.5212e-09, 0.0434918
 19740, 678, 0.9725, 3.99229e-14, 1.59691e-09, 0.0434918
 19770, 679, 0.9725, 4.19058e-14, 1.67623e-09, 0.0434918
 19800, 680, 0.9725, 4.39827e-14, 1.75931e-09, 0.0434918
 19830, 681, 0.9725, 4.61579e-14, 1.84632e-09, 0.0434918
 19860, 682, 0.9725, 4.84357e-14, 1.93743e-09, 0.0434918
 19890, 683, 0.9725, 5.08209e-14, 2.03284e-09, 0.0434918
 19920, 684, 0.9725, 5.33181e-14, 2.13273e-09, 0.0434918
 19950, 685, 0.9725, 5.59325e-14, 2.2373e-09, 0.0434918
 19980, 686, 0.9725, 5.86692e-14, 2.34677e-09, 0.0434918
 20010, 687, 0.9725, 6.15337e-14, 2.46135e-09, 0.0434918
 20040, 688, 0.9725, 6.45316e-14, 2.58126e-09, 0.0434918
 20070, 689, 0.9725, 6.76689e-14, 2.70676e-09, 0.0434918
 20100, 690, 0.9725, 7.09517e-14, 2.83807e-09, 0.0434918
 20130, 691, 0.9725, 7.43865e-14, 2.97546e-09, 0.0434918
 20160, 692, 0.9725, 7.79799e-14, 3.1192e-09, 0.0434918
 20190, 693, 0.9725, 8.17389e-14, 3.26956e-09, 0.0434918
 20220, 694, 0.9725, 8.56708e-14, 3.42683e-09, 0.0434918
 20250, 695, 0.9725, 8.97831e-14, 3.59132e-09, 0.0434918
 20280, 696, 0.9725, 9.40836e-14, 3.76335e-09, 0.0434918
 20310, 697, 0.9725, 9.85807e-14, 3.94323e-09, 0.0434918
 20340, 698, 0.9725, 1.03283e-13, 4.13131e-09, 0.0434918
 20370, 699, 0.9725, 1.08199e-13, 4.32795e-09, 0.0434918
 20400, 700, 0.9725, 1.13338e-13, 4.53352e-09, 0.0434918
 20430, 701, 0.9725, 1.1871e-13, 4.7484e-09, 0.0434918
 20460, 702, 0.9725, 1.24325e-13, 4.97299e-09, 0.0434918
 20490, 703, 0.9725, 1.30193e-13, 5.20771e-09, 0.0434918
 20520, 704, 0.9725, 1.36325e-13, 5.45299e-09, 0.0434918
 20550, 705, 0.9725, 1.42732e-13, 5.70929e-09, 0.0434918
 20580, 706, 0.9725, 1.49427e-13, 5.97708e-09, 0.0434918
 20610, 707, 0.9725, 1.56421e-13, 6.25684e-09, 0.0434918
 20640, 708, 0.9725, 1.63727e-13, 6.54908e-09, 0.0434918
 20670, 709, 0.9725, 1.71358e-13, 6.85433e-09, 0.0434918
 20700, 710, 0.9725, 1.79329e-13, 7.17315e-09, 0.0434918
 20730, 711, 0.9725, 1.87653e-13, 7.50611e-09, 0.0434918
 20760, 712, 0.9725, 1.96345e-13, 7.8538e-09, 0.0434918
 20790, 713, 0.9725, 2.05421e-13, 8.21683e-09, 0.0434918
 20820, 714, 0.9725, 2.14897e-13, 8.59587e-09, 0.0434918
 20850, 715, 0.9725, 2.24789e-13, 8.99156e-09, 0.0434918
 20880, 716, 0.9725, 2.35115e-13, 9.40461e-09, 0.0434918
 20910, 717, 0.9725, 2.45894e-13, 9.83575e-09, 0.0434918
 20940, 718, 0.9725, 2.57143e-13, 1.02857e-08, 0.0434918
 20970, 719, 0.9725, 2.68883e-13, 1.07553e-08, 0.0434917
 21000, 720, 0.9725, 2.81133e-13, 1.12453e-08, 0.0434918
 21030, 721, 0.9725, 2.93915e-13, 1.17566e-08, 0.0434919
 21060, 722, 0.9725, 3.07251e-13, 1.229e-08, 0.0434918
 21090, 723, 0.9725, 3.21163e-13, 1.28465e-08, 0.0434918
 21120, 724, 0.9725, 3.35676e-13, 1.3427e-08, 0.0434919
 21150, 725, 0.9725, 3.50813e-13, 1.40325e-08, 0.0434918
 21180, 726, 0.9725, 3.666e-13, 1.4664e-08, 0.0434918
 21210, 727, 0.9725, 3.83064e-13, 1.53226e-08, 0.0434918
 21240, 728, 0.9725, 4.00233e-13, 1.60093e-08, 0.0434918
 21270, 729, 0.9725, 4.18134e-13, 1.67254e-08, 0.0434918
 21300, 730, 0.9725, 4.36798e-13, 1.74719e-08, 0.0434917
 21330, 731, 0.9725, 4.56255e-13, 1.82502e-08, 0.0434918
 21360, 732, 0.9725, 4.76538e-13, 1.90615e-08, 0.0434917
 21390, 733, 0.9725, 4.97679e-13, 1.99072e-08, 0.0434918
 21420, 734, 0.9725, 5.19714e-13, 2.07885e-08, 0.0434918
 21450, 735, 0.9725, 5.42677e-13, 2.17071e-08, 0.0434918
 21480, 736, 0.9725, 5.66606e-13, 2.26643e-08, 0.0434918
 21510, 737, 0.9725, 5.9154e-13, 2.36616e-08, 0.0434918
 21540, 738, 0.9725, 6.17519e-13, 2.47008e-08, 0.0434918
 21570, 739, 0.9725, 6.44584e-13, 2.57834e-08, 0.0434918
 21600, 740, 0.9725, 6.72778e-13, 2.69111e-08, 0.0434918
 21630, 741, 0.9725, 7.02146e-13, 2.80858e-08, 0.0434918
 21660, 742, 0.9725, 7.32734e-13, 2.93094e-08, 0.0434918
 21690, 743, 0.9725, 7.64591e-13, 3.05836e-08, 0.0434918
 21720, 744, 0.9725, 7.97765e-13, 3.19106e-08, 0.0434918
 21750, 745, 0.9725, 8.3231e-13, 3.32924e-08, 0.0434918
 21780, 746, 0.9725, 8.68279e-13, 3.47312e-08, 0.0434918
 21810, 747, 0.9725, 9.05727e-13, 3.62291e-08, 0.0434918
 21840, 748, 0.9725, 9.44711e-13, 3.77885e-08, 0.0434918
 21870, 749, 0.9725, 9.85293e-13, 3.94117e-08, 0.0434918
 21900, 750, 0.9725, 1.02753e-12, 4.11013e-08, 0.0434918
 21930, 751, 0.9725, 1.0715e-12, 4.28598e-08, 0.0434918
 21960, 752, 0.9725, 1.11725e-12, 4.469e-08, 0.0434917
 21990, 753, 0.9725, 1.16486e-12, 4.65944e-08, 0.0434918
 22020, 754, 0.9725, 1.2144e-12, 4.85761e-08, 0.0434918
 22050, 755, 0.9725, 1.26595e-12, 5.0638e-08, 0.0434919
 22080, 756, 0.9725, 1.31958e-12, 5.27831e-08, 0.0434919
 22110, 757, 0.9725, 1.37536e-12, 5.50146e-08, 0.0434918
 22140, 758, 0.9725, 1.4334e-12, 5.73359e-08, 0.0434918
 22170, 759, 0.9725, 1.49376e-12, 5.97503e-08, 0.0434919
 22200, 760, 0.9725, 1.55654e-12, 6.22615e-08, 0.0434918
 22230, 761, 0.9725, 1.62182e-12, 6.4873e-08, 0.0434917
 22260, 762, 0.9725, 1.68972e-12, 6.75887e-08, 0.0434918
 22290, 763, 0.9725, 1.76031e-12, 7.04125e-08, 0.0434917
 22320, 764, 0.9725, 1.83371e-12, 7.33485e-08, 0.0434918
 22350, 765, 0.9725, 1.91002e-12, 7.64009e-08, 0.0434917
 22380, 766, 0.9725, 1.98935e-12, 7.9574e-08, 0.0434917
 22410, 767, 0.9725, 2.07181e-12, 8.28725e-08, 0.0434918
 22440, 768, 0.9725, 2.15752e-12, 8.6301e-08, 0.0434918
 22470, 769, 0.9725, 2.24661e-12, 8.98643e-08, 0.0434919
 22500, 770, 0.9725, 2.33919e-12, 9.35675e-08, 0.0434919
 22530, 771, 0.9725, 2.43539e-12, 9.74157e-08, 0.0434919
 22560, 772, 0.9725, 2.53536e-12, 1.01414e-07, 0.0434917
 22590, 773, 0.9725, 2.63923e-12, 1.05569e-07, 0.0434917
 22620, 774, 0.9725, 2.74714e-12, 1.09886e-07, 0.0434918
 22650, 775, 0.9725, 2.85925e-12, 1.1437e-07, 0.0434917
 22680, 776, 0.9725, 2.9757e-12, 1.19028e-07, 0.0434919
 22710, 777, 0.9725, 3.09667e-12, 1.23867e-07, 0.0434917
 22740, 778, 0.9725, 3.2223e-12, 1.28892e-07, 0.0434919
 22770, 779, 0.9725, 3.35278e-12, 1.34111e-07, 0.0434918
 22800, 780, 0.9725, 3.48828e-12, 1.39531e-07, 0.0434918
 22830, 781, 0.9725, 3.62898e-12, 1.45159e-07, 0.0434917
 22860, 782, 0.9725, 3.77507e-12, 1.51003e-07, 0.0434918
 22890, 783, 0.9725, 3.92676e-12, 1.5707e-07, 0.0434918
 22920, 784, 0.9725, 4.08423e-12, 1.63369e-07, 0.0434918
 22950, 785, 0.9725, 4.2477e-12, 1.69908e-07, 0.0434918
 22980, 786, 0.9725, 4.41739e-12, 1.76696e-07, 0.0434917
 23010, 787, 0.9725, 4.59352e-12, 1.83741e-07, 0.0434917
 23040, 788, 0.9725, 4.77631e-12, 1.91053e-07, 0.0434918
 23070, 789, 0.9725, 4.96602e-12, 1.98641e-07, 0.0434918
 23100, 790, 0.9725, 5.16288e-12, 2.06515e-07, 0.0434917
 23130, 791, 0.9725, 5.36716e-12, 2.14686e-07, 0.0434918
 23160, 792, 0.9725, 5.57911e-12, 2.23164e-07, 0.0434919
 23190, 793, 0.9725, 5.79901e-12, 2.3196e-07, 0.0434918
 23220, 794, 0.9725, 6.02714e-12, 2.41086e-07, 0.0434918
 23250, 795, 0.9725, 6.26379e-12, 2.50552e-07, 0.0434918
 23280, 796, 0.9725, 6.50927e-12, 2.60371e-07, 0.0434917
 23310, 797, 0.9725, 6.76388e-12, 2.70555e-07, 0.0434918
 23340, 798, 0.9725, 7.02794e-12, 2.81118e-07, 0.0434919
 23370, 799, 0.9725, 7.30179e-12, 2.92072e-07, 0.0434918
 23400, 800, 0.9725, 7.58578e-12, 3.03431e-07, 0.0434919