File: examples/Birch_TGA_Example/Work/Cone_zba3hngy/birch_tga_1step_2_tga.csv
s,C,g/g,1/s,W/g,W/g
Time,Temp,Mass,MLR,MCC,DSC
 30, 21.0001, 0.999987, 4.80453e-07, 0.0000000E+000, 0.0484218
 60, 22.0001, 0.999971, 5.51532e-07, 0.0000000E+000, 0.0485805
 90, 23.0001, 0.999953, 6.32482e-07, 0.0000000E+000, 0.0487612
 120, 24.0001, 0.999933, 7.24574e-07, 0.0000000E+000, 0.0489667
 150, 25.0001, 0.99991, 8.29223e-07, 0.0000000E+000, 0.0492002
 180, 26.0001, 0.999883, 9.4801e-07, 0.0000000E+000, 0.0494653
 210, 27.0001, 0.999853, 1.08269e-06, 0.0000000E+000, 0.0497658
 240, 28.0001, 0.999818, 1.2352e-06, 0.0000000E+000, 0.0501061
 270, 29.0001, 0.999778, 1.40771e-06, 0.0000000E+000, 0.0504909
 300, 30.0001, 0.999733, 1.60258e-06, 0.0000000E+000, 0.0509255
 330, 31.0001, 0.999682, 1.82243e-06, 0.0000000E+000, 0.0514158
 360, 32.0001, 0.999624, 2.07013e-06, 0.0000000E+000, 0.0519682
 390, 33.0001, 0.999557, 2.34882e-06, 0.0000000E+000, 0.0525895
 420, 34.0001, 0.999482, 2.66189e-06, 0.0000000E+000, 0.0532874
 450, 35.0001, 0.999397, 3.01305e-06, 0.0000000E+000, 0.0540701
 480, 36.0001, 0.999301, 3.40628e-06, 0.0000000E+000, 0.0549465
 510, 37.0001, 0.999193, 3.84585e-06, 0.0000000E+000, 0.0559259
 540, 38.0001, 0.99907, 4.3363e-06, 0.0000000E+000, 0.0570186
 570, 39.0001, 0.998932, 4.88242e-06, 0.0000000E+000, 0.058235
 600, 40.0001, 0.998776, 5.48922e-06, 0.0000000E+000, 0.0595863
 630, 41.0001, 0.998602, 6.16185e-06, 0.0000000E+000, 0.0610839
 660, 42.0001, 0.998406, 6.90557e-06, 0.0000000E+000, 0.0627394
 690, 43.0001, 0.998187, 7.72561e-06, 0.0000000E+000, 0.0645643
 720, 44.0001, 0.997942, 8.62708e-06, 0.0000000E+000, 0.0665699
 750, 45.0001, 0.997668, 9.61477e-06, 0.0000000E+000, 0.0687666
 780, 46.0001, 0.997364, 1.06929e-05, 0.0000000E+000, 0.0711637
 810, 47.0001, 0.997026, 1.18651e-05, 0.0000000E+000, 0.0737688
 840, 48.0001, 0.996651, 1.31337e-05, 0.0000000E+000, 0.076587
 870, 49.0001, 0.996237, 1.44998e-05, 1.47324e-38, 0.0796201
 900, 50.0001, 0.99578, 1.59624e-05, 2.13028e-38, 0.0828659
 930, 51.0001, 0.995278, 1.75185e-05, 3.07334e-38, 0.0863168
 960, 52.0001, 0.994728, 1.9162e-05, 4.42392e-38, 0.0899588
 990, 53.0001, 0.994127, 2.08834e-05, 6.35379e-38, 0.09377
 1020, 54.0001, 0.993474, 2.26693e-05, 9.10536e-38, 0.0977197
 1050, 55.0001, 0.992767, 2.45015e-05, 1.30199e-37, 0.101767
 1080, 56.0001, 0.992004, 2.63566e-05, 1.85771e-37, 0.105858
 1110, 57.0001, 0.991185, 2.82058e-05, 2.64491e-37, 0.109927
 1140, 58.0001, 0.990312, 3.0014e-05, 3.75766e-37, 0.113897
 1170, 59.0001, 0.989385, 3.17404e-05, 5.32728e-37, 0.117674
 1200, 60.0001, 0.988409, 3.33383e-05, 7.53675e-37, 0.121153
 1230, 61.0001, 0.987387, 3.47561e-05, 1.06405e-36, 0.124218
 1260, 62.0001, 0.986326, 3.59385e-05, 1.49914e-36, 0.126745
 1290, 63.0001, 0.985233, 3.68283e-05, 2.10785e-36, 0.128606
 1320, 64.0001, 0.98412, 3.73693e-05, 2.95774e-36, 0.129674
 1350, 65.0001, 0.982995, 3.75093e-05, 4.14199e-36, 0.129834
 1380, 66.0001, 0.981873, 3.72041e-05, 5.78889e-36, 0.128986
 1410, 67.0001, 0.980768, 3.6422e-05, 8.07472e-36, 0.127062
 1440, 68.0001, 0.979693, 3.5148e-05, 1.12412e-35, 0.124029
 1470, 69.0001, 0.978664, 3.3388e-05, 1.56191e-35, 0.119902
 1500, 70.0001, 0.977694, 3.11719e-05, 2.16605e-35, 0.114752
 1530, 71.0001, 0.976798, 2.85552e-05, 2.99817e-35, 0.108706
 1560, 72.0001, 0.975984, 2.56186e-05, 4.14215e-35, 0.101947
 1590, 73.0001, 0.975263, 2.24643e-05, 5.71194e-35, 0.0947086
 1620, 74.0001, 0.974637, 1.92104e-05, 7.86209e-35, 0.0872584
 1650, 75.0001, 0.97411, 1.59822e-05, 1.08018e-34, 0.07988
 1680, 76.0001, 0.973677, 1.29016e-05, 1.48136e-34, 0.0728489
 1710, 77.0001, 0.973333, 1.00765e-05, 2.02789e-34, 0.0664084
 1740, 78.0001, 0.973069, 7.59038e-06, 2.7711e-34, 0.060746
 1770, 79.0001, 0.972874, 5.49563e-06, 3.77996e-34, 0.0559788
 1800, 80.0001, 0.972735, 3.81018e-06, 5.14707e-34, 0.0521458
 1830, 81.0001, 0.972641, 2.51929e-06, 6.99641e-34, 0.0492118
 1860, 82.0001, 0.972581, 1.58158e-06, 9.49379e-34, 0.0470816
 1890, 83.0001, 0.972543, 9.38173e-07, 1.28606e-33, 0.0456206
 1920, 84.0001, 0.972522, 5.2309e-07, 1.73917e-33, 0.0446784
 1950, 85.0001, 0.97251, 2.72579e-07, 2.34796e-33, 0.04411
 1980, 86.0001, 0.972505, 1.31928e-07, 3.16457e-33, 0.0437909
 2010, 87.0001, 0.972502, 5.89092e-08, 4.25813e-33, 0.0436254
 2040, 88.0001, 0.972501, 2.40911e-08, 5.72017e-33, 0.0435464
 2070, 89.0001, 0.9725, 8.95183e-09, 7.67169e-33, 0.0435121
 2100, 90.0001, 0.9725, 2.99648e-09, 1.02724e-32, 0.0434986
 2130, 91.0001, 0.9725, 8.95175e-10, 1.37327e-32, 0.0434938
 2160, 92.0001, 0.9725, 2.36271e-10, 1.83294e-32, 0.0434924
 2190, 93.0001, 0.9725, 5.44967e-11, 2.44262e-32, 0.0434919
 2220, 94.0001, 0.9725, 1.08553e-11, 3.25002e-32, 0.0434918
 2250, 95.0001, 0.9725, 1.84359e-12, 4.31758e-32, 0.0434918
 2280, 96.0001, 0.9725, 2.63279e-13, 5.727e-32, 0.0434918
 2310, 97.0001, 0.9725, 3.11454e-14, 7.58493e-32, 0.0434918
 2340, 98.0001, 0.9725, 3.00311e-15, 1.00304e-31, 0.0434918
 2370, 99.0001, 0.9725, 2.31931e-16, 1.32444e-31, 0.0434918
 2400, 100, 0.9725, 1.40786e-17, 1.74622e-31, 0.0434918
 2430, 101, 0.9725, 6.58164e-19, 2.29892e-31, 0.0434918
 2460, 102, 0.9725, 2.31818e-20, 3.02213e-31, 0.0434918
 2490, 103, 0.9725, 6.00778e-22, 3.96707e-31, 0.0434918
 2520, 104, 0.9725, 1.11675e-23, 5.19996e-31, 0.0434918
 2550, 105, 0.9725, 1.44856e-25, 6.80627e-31, 0.0434918
 2580, 106, 0.9725, 1.27292e-27, 8.89613e-31, 0.0434918
 2610, 107, 0.9725, 7.34032e-30, 1.16113e-30, 0.0434918
 2640, 108, 0.9725, 2.68781e-32, 1.5134e-30, 0.0434918
 2670, 109, 0.9725, 1.09226e-34, 1.96982e-30, 0.0434918
 2700, 110, 0.9725, 6.40875e-35, 2.56035e-30, 0.0434918
 2730, 111, 0.9725, 8.30846e-35, 3.32338e-30, 0.0434918
 2760, 112, 0.9725, 1.07699e-34, 4.30797e-30, 0.0434918
 2790, 113, 0.9725, 1.39419e-34, 5.57675e-30, 0.0434918
 2820, 114, 0.9725, 1.8024e-34, 7.2096e-30, 0.0434918
 2850, 115, 0.9725, 2.32705e-34, 9.30821e-30, 0.0434918
 2880, 116, 0.9725, 3.00048e-34, 1.20019e-29, 0.0434918
 2910, 117, 0.9725, 3.86375e-34, 1.5455e-29, 0.0434918
 2940, 118, 0.9725, 4.96898e-34, 1.98759e-29, 0.0434918
 2970, 119, 0.9725, 6.38215e-34, 2.55286e-29, 0.0434918
 3000, 120, 0.9725, 8.1868e-34, 3.27472e-29, 0.0434918
 3030, 121, 0.9725, 1.04885e-33, 4.19539e-29, 0.0434918
 3060, 122, 0.9725, 1.34204e-33, 5.36817e-29, 0.0434918
 3090, 123, 0.9725, 1.71506e-33, 6.86024e-29, 0.0434918
 3120, 124, 0.9725, 2.18905e-33, 8.75622e-29, 0.0434918
 3150, 125, 0.9725, 2.79062e-33, 1.11625e-28, 0.0434918
 3180, 126, 0.9725, 3.55318e-33, 1.42127e-28, 0.0434918
 3210, 127, 0.9725, 4.51865e-33, 1.80746e-28, 0.0434918
 3240, 128, 0.9725, 5.73958e-33, 2.29583e-28, 0.0434918
 3270, 129, 0.9725, 7.28174e-33, 2.9127e-28, 0.0434918
 3300, 130, 0.9725, 9.22736e-33, 3.69094e-28, 0.0434918
 3330, 131, 0.9725, 1.16791e-32, 4.67165e-28, 0.0434918
 3360, 132, 0.9725, 1.47652e-32, 5.90607e-28, 0.0434918
 3390, 133, 0.9725, 1.86451e-32, 7.45804e-28, 0.0434918
 3420, 134, 0.9725, 2.35176e-32, 9.40706e-28, 0.0434918
 3450, 135, 0.9725, 2.96298e-32, 1.18519e-27, 0.0434918
 3480, 136, 0.9725, 3.72883e-32, 1.49153e-27, 0.0434918
 3510, 137, 0.9725, 4.68738e-32, 1.87495e-27, 0.0434918
 3540, 138, 0.9725, 5.88578e-32, 2.35431e-27, 0.0434918
 3570, 139, 0.9725, 7.38242e-32, 2.95297e-27, 0.0434918
 3600, 140, 0.9725, 9.24946e-32, 3.69979e-27, 0.0434918
 3630, 141, 0.9725, 1.15761e-31, 4.63043e-27, 0.0434918
 3660, 142, 0.9725, 1.44723e-31, 5.78892e-27, 0.0434918
 3690, 143, 0.9725, 1.80737e-31, 7.22948e-27, 0.0434918
 3720, 144, 0.9725, 2.25473e-31, 9.01891e-27, 0.0434918
 3750, 145, 0.9725, 2.80984e-31, 1.12394e-26, 0.0434918
 3780, 146, 0.9725, 3.49794e-31, 1.39918e-26, 0.0434918
 3810, 147, 0.9725, 4.35002e-31, 1.74001e-26, 0.0434918
 3840, 148, 0.9725, 5.40406e-31, 2.16162e-26, 0.0434918
 3870, 149, 0.9725, 6.70661e-31, 2.68264e-26, 0.0434918
 3900, 150, 0.9725, 8.31461e-31, 3.32585e-26, 0.0434918
 3930, 151, 0.9725, 1.02977e-30, 4.11909e-26, 0.0434918
 3960, 152, 0.9725, 1.2741e-30, 5.0964e-26, 0.0434918
 3990, 153, 0.9725, 1.57482e-30, 6.29929e-26, 0.0434918
 4020, 154, 0.9725, 1.94459e-30, 7.77837e-26, 0.0434918
 4050, 155, 0.9725, 2.39882e-30, 9.59529e-26, 0.0434918
 4080, 156, 0.9725, 2.95626e-30, 1.1825e-25, 0.0434918
 4110, 157, 0.9725, 3.6397e-30, 1.45588e-25, 0.0434918
 4140, 158, 0.9725, 4.47681e-30, 1.79073e-25, 0.0434918
 4170, 159, 0.9725, 5.50119e-30, 2.20048e-25, 0.0434918
 4200, 160, 0.9725, 6.75353e-30, 2.70141e-25, 0.0434918
 4230, 161, 0.9725, 8.28314e-30, 3.31325e-25, 0.0434918
 4260, 162, 0.9725, 1.01497e-29, 4.05986e-25, 0.0434918
 4290, 163, 0.9725, 1.24252e-29, 4.97008e-25, 0.0434918
 4320, 164, 0.9725, 1.51968e-29, 6.07873e-25, 0.0434918
 4350, 165, 0.9725, 1.85696e-29, 7.42786e-25, 0.0434918
 4380, 166, 0.9725, 2.26703e-29, 9.06813e-25, 0.0434918
 4410, 167, 0.9725, 2.76515e-29, 1.10606e-24, 0.0434918
 4440, 168, 0.9725, 3.36967e-29, 1.34787e-24, 0.0434918
 4470, 169, 0.9725, 4.10269e-29, 1.64108e-24, 0.0434918
 4500, 170, 0.9725, 4.99073e-29, 1.99629e-24, 0.0434918
 4530, 171, 0.9725, 6.06563e-29, 2.42625e-24, 0.0434918
 4560, 172, 0.9725, 7.36559e-29, 2.94624e-24, 0.0434918
 4590, 173, 0.9725, 8.93636e-29, 3.57455e-24, 0.0434918
 4620, 174, 0.9725, 1.08327e-28, 4.3331e-24, 0.0434918
 4650, 175, 0.9725, 1.31203e-28, 5.24812e-24, 0.0434918
 4680, 176, 0.9725, 1.58773e-28, 6.35094e-24, 0.0434918
 4710, 177, 0.9725, 1.91975e-28, 7.67899e-24, 0.0434918
 4740, 178, 0.9725, 2.31924e-28, 9.27695e-24, 0.0434918
 4770, 179, 0.9725, 2.79951e-28, 1.11981e-23, 0.0434918
 4800, 180, 0.9725, 3.37644e-28, 1.35058e-23, 0.0434918
 4830, 181, 0.9725, 4.06891e-28, 1.62756e-23, 0.0434918
 4860, 182, 0.9725, 4.89937e-28, 1.95975e-23, 0.0434918
 4890, 183, 0.9725, 5.89453e-28, 2.35781e-23, 0.0434918
 4920, 184, 0.9725, 7.08609e-28, 2.83444e-23, 0.0434918
 4950, 185, 0.9725, 8.51168e-28, 3.40467e-23, 0.0434918
 4980, 186, 0.9725, 1.02159e-27, 4.08636e-23, 0.0434918
 5010, 187, 0.9725, 1.22516e-27, 4.90065e-23, 0.0434918
 5040, 188, 0.9725, 1.46815e-27, 5.87258e-23, 0.0434918
 5070, 189, 0.9725, 1.75794e-27, 7.03176e-23, 0.0434918
 5100, 190, 0.9725, 2.1033e-27, 8.41319e-23, 0.0434918
 5130, 191, 0.9725, 2.51456e-27, 1.00582e-22, 0.0434918
 5160, 192, 0.9725, 3.00393e-27, 1.20157e-22, 0.0434918
 5190, 193, 0.9725, 3.5858e-27, 1.43432e-22, 0.0434918
 5220, 194, 0.9725, 4.27714e-27, 1.71086e-22, 0.0434918
 5250, 195, 0.9725, 5.09793e-27, 2.03917e-22, 0.0434918
 5280, 196, 0.9725, 6.07169e-27, 2.42867e-22, 0.0434918
 5310, 197, 0.9725, 7.22606e-27, 2.89042e-22, 0.0434918
 5340, 198, 0.9725, 8.59356e-27, 3.43742e-22, 0.0434918
 5370, 199, 0.9725, 1.02123e-26, 4.08494e-22, 0.0434918
 5400, 200, 0.9725, 1.21272e-26, 4.85089e-22, 0.0434918
 5430, 201, 0.9725, 1.43907e-26, 5.75628e-22, 0.0434918
 5460, 202, 0.9725, 1.70644e-26, 6.82575e-22, 0.0434918
 5490, 203, 0.9725, 2.02203e-26, 8.08811e-22, 0.0434918
 5520, 204, 0.9725, 2.39428e-26, 9.57713e-22, 0.0434918
 5550, 205, 0.9725, 2.83307e-26, 1.13323e-21, 0.0434918
 5580, 206, 0.9725, 3.34991e-26, 1.33996e-21, 0.0434918
 5610, 207, 0.9725, 3.95828e-26, 1.58331e-21, 0.0434918
 5640, 208, 0.9725, 4.67389e-26, 1.86955e-21, 0.0434918
 5670, 209, 0.9725, 5.51507e-26, 2.20603e-21, 0.0434918
 5700, 210, 0.9725, 6.50318e-26, 2.60127e-21, 0.0434918
 5730, 211, 0.9725, 7.66311e-26, 3.06524e-21, 0.0434918
 5760, 212, 0.9725, 9.02382e-26, 3.60953e-21, 0.0434918
 5790, 213, 0.9725, 1.0619e-25, 4.2476e-21, 0.0434918
 5820, 214, 0.9725, 1.24878e-25, 4.99513e-21, 0.0434918
 5850, 215, 0.9725, 1.46758e-25, 5.87032e-21, 0.0434918
 5880, 216, 0.9725, 1.72357e-25, 6.8943e-21, 0.0434918
 5910, 217, 0.9725, 2.02289e-25, 8.09158e-21, 0.0434918
 5940, 218, 0.9725, 2.37265e-25, 9.49059e-21, 0.0434918
 5970, 219, 0.9725, 2.78107e-25, 1.11243e-20, 0.0434918
 6000, 220, 0.9725, 3.25769e-25, 1.30308e-20, 0.0434918
 6030, 221, 0.9725, 3.81356e-25, 1.52543e-20, 0.0434918
 6060, 222, 0.9725, 4.46144e-25, 1.78458e-20, 0.0434918
 6090, 223, 0.9725, 5.21609e-25, 2.08644e-20, 0.0434918
 6120, 224, 0.9725, 6.09455e-25, 2.43782e-20, 0.0434918
 6150, 225, 0.9725, 7.11651e-25, 2.8466e-20, 0.0434918
 6180, 226, 0.9725, 8.30467e-25, 3.32187e-20, 0.0434918
 6210, 227, 0.9725, 9.68523e-25, 3.87409e-20, 0.0434918
 6240, 228, 0.9725, 1.12884e-24, 4.51534e-20, 0.0434918
 6270, 229, 0.9725, 1.31488e-24, 5.25952e-20, 0.0434918
 6300, 230, 0.9725, 1.53066e-24, 6.12264e-20, 0.0434918
 6330, 231, 0.9725, 1.78078e-24, 7.12311e-20, 0.0434918
 6360, 232, 0.9725, 2.07052e-24, 8.28209e-20, 0.0434918
 6390, 233, 0.9725, 2.40598e-24, 9.62391e-20, 0.0434918
 6420, 234, 0.9725, 2.79413e-24, 1.11765e-19, 0.0434918
 6450, 235, 0.9725, 3.24299e-24, 1.29719e-19, 0.0434918
 6480, 236, 0.9725, 3.76175e-24, 1.5047e-19, 0.0434918
 6510, 237, 0.9725, 4.36096e-24, 1.74438e-19, 0.0434918
 6540, 238, 0.9725, 5.0527e-24, 2.02108e-19, 0.0434918
 6570, 239, 0.9725, 5.85079e-24, 2.34032e-19, 0.0434918
 6600, 240, 0.9725, 6.77107e-24, 2.70843e-19, 0.0434918
 6630, 241, 0.9725, 7.83166e-24, 3.13266e-19, 0.0434918
 6660, 242, 0.9725, 9.05325e-24, 3.6213e-19, 0.0434918
 6690, 243, 0.9725, 1.04595e-23, 4.18381e-19, 0.0434918
 6720, 244, 0.9725, 1.20775e-23, 4.83099e-19, 0.0434918
 6750, 245, 0.9725, 1.3938e-23, 5.57518e-19, 0.0434918
 6780, 246, 0.9725, 1.60762e-23, 6.43047e-19, 0.0434918
 6810, 247, 0.9725, 1.85323e-23, 7.4129e-19, 0.0434918
 6840, 248, 0.9725, 2.13519e-23, 8.54076e-19, 0.0434918
 6870, 249, 0.9725, 2.45872e-23, 9.83489e-19, 0.0434918
 6900, 250, 0.9725, 2.82975e-23, 1.1319e-18, 0.0434918
 6930, 251, 0.9725, 3.25502e-23, 1.30201e-18, 0.0434918
 6960, 252, 0.9725, 3.7422e-23, 1.49688e-18, 0.0434918
 6990, 253, 0.9725, 4.30003e-23, 1.72001e-18, 0.0434918
 7020, 254, 0.9725, 4.9384e-23, 1.97536e-18, 0.0434918
 7050, 255, 0.9725, 5.66857e-23, 2.26743e-18, 0.0434918
 7080, 256, 0.9725, 6.5033e-23, 2.60132e-18, 0.0434919
 7110, 257, 0.9725, 7.4571e-23, 2.98284e-18, 0.0434918
 7140, 258, 0.9725, 8.54637e-23, 3.41855e-18, 0.0434918
 7170, 259, 0.9725, 9.78974e-23, 3.9159e-18, 0.0434918
 7200, 260, 0.9725, 1.12083e-22, 4.48332e-18, 0.0434918
 7230, 261, 0.9725, 1.28259e-22, 5.13036e-18, 0.0434918
 7260, 262, 0.9725, 1.46695e-22, 5.86782e-18, 0.0434918
 7290, 263, 0.9725, 1.67698e-22, 6.70793e-18, 0.0434918
 7320, 264, 0.9725, 1.91612e-22, 7.6645e-18, 0.0434918
 7350, 265, 0.9725, 2.18829e-22, 8.75314e-18, 0.0434918
 7380, 266, 0.9725, 2.49787e-22, 9.99149e-18, 0.0434918
 7410, 267, 0.9725, 2.84986e-22, 1.13994e-17, 0.0434919
 7440, 268, 0.9725, 3.24987e-22, 1.29995e-17, 0.0434918
 7470, 269, 0.9725, 3.70422e-22, 1.48169e-17, 0.0434918
 7500, 270, 0.9725, 4.22006e-22, 1.68803e-17, 0.0434918
 7530, 271, 0.9725, 4.80544e-22, 1.92218e-17, 0.0434918
 7560, 272, 0.9725, 5.4694e-22, 2.18776e-17, 0.0434918
 7590, 273, 0.9725, 6.22216e-22, 2.48886e-17, 0.0434918
 7620, 274, 0.9725, 7.07518e-22, 2.83007e-17, 0.0434918
 7650, 275, 0.9725, 8.04138e-22, 3.21655e-17, 0.0434918
 7680, 276, 0.9725, 9.13526e-22, 3.65411e-17, 0.0434918
 7710, 277, 0.9725, 1.03731e-21, 4.14926e-17, 0.0434919
 7740, 278, 0.9725, 1.17733e-21, 4.70933e-17, 0.0434918
 7770, 279, 0.9725, 1.33564e-21, 5.34255e-17, 0.0434918
 7800, 280, 0.9725, 1.51454e-21, 6.05815e-17, 0.0434918
 7830, 281, 0.9725, 1.71662e-21, 6.86649e-17, 0.0434918
 7860, 282, 0.9725, 1.94479e-21, 7.77917e-17, 0.0434918
 7890, 283, 0.9725, 2.2023e-21, 8.80921e-17, 0.0434918
 7920, 284, 0.9725, 2.4928e-21, 9.97118e-17, 0.0434918
 7950, 285, 0.9725, 2.82035e-21, 1.12814e-16, 0.0434918
 7980, 286, 0.9725, 3.18955e-21, 1.27582e-16, 0.0434918
 8010, 287, 0.9725, 3.60548e-21, 1.44219e-16, 0.0434918
 8040, 288, 0.9725, 4.07388e-21, 1.62955e-16, 0.0434918
 8070, 289, 0.9725, 4.60113e-21, 1.84045e-16, 0.0434918
 8100, 290, 0.9725, 5.19436e-21, 2.07775e-16, 0.0434918
 8130, 291, 0.9725, 5.86157e-21, 2.34463e-16, 0.0434918
 8160, 292, 0.9725, 6.61165e-21, 2.64466e-16, 0.0434918
 8190, 293, 0.9725, 7.45454e-21, 2.98182e-16, 0.0434918
 8220, 294, 0.9725, 8.40133e-21, 3.36053e-16, 0.0434918
 8250, 295, 0.9725, 9.46439e-21, 3.78576e-16, 0.0434918
 8280, 296, 0.9725, 1.06575e-20, 4.263e-16, 0.0434918
 8310, 297, 0.9725, 1.1996e-20, 4.79841e-16, 0.0434918
 8340, 298, 0.9725, 1.34971e-20, 5.39882e-16, 0.0434918
 8370, 299, 0.9725, 1.51797e-20, 6.07186e-16, 0.0434918
 8400, 300, 0.9725, 1.7065e-20, 6.82601e-16, 0.0434919
 8430, 301, 0.9725, 1.91767e-20, 7.67069e-16, 0.0434918
 8460, 302, 0.9725, 2.1541e-20, 8.61641e-16, 0.0434918
 8490, 303, 0.9725, 2.4187e-20, 9.67481e-16, 0.0434918
 8520, 304, 0.9725, 2.71472e-20, 1.08589e-15, 0.0434918
 8550, 305, 0.9725, 3.04574e-20, 1.2183e-15, 0.0434918
 8580, 306, 0.9725, 3.41577e-20, 1.36631e-15, 0.0434918
 8610, 307, 0.9725, 3.82924e-20, 1.5317e-15, 0.0434919
 8640, 308, 0.9725, 4.29108e-20, 1.71643e-15, 0.0434918
 8670, 309, 0.9725, 4.80673e-20, 1.92269e-15, 0.0434918
 8700, 310, 0.9725, 5.38226e-20, 2.1529e-15, 0.0434918
 8730, 311, 0.9725, 6.02436e-20, 2.40975e-15, 0.0434918
 8760, 312, 0.9725, 6.74047e-20, 2.69619e-15, 0.0434918
 8790, 313, 0.9725, 7.53881e-20, 3.01552e-15, 0.0434918
 8820, 314, 0.9725, 8.42849e-20, 3.3714e-15, 0.0434918
 8850, 315, 0.9725, 9.4196e-20, 3.76784e-15, 0.0434918
 8880, 316, 0.9725, 1.05233e-19, 4.20931e-15, 0.0434918
 8910, 317, 0.9725, 1.17518e-19, 4.70074e-15, 0.0434918
 8940, 318, 0.9725, 1.3119e-19, 5.24758e-15, 0.0434918
 8970, 319, 0.9725, 1.46397e-19, 5.85586e-15, 0.0434918
 9000, 320, 0.9725, 1.63306e-19, 6.53224e-15, 0.0434918
 9030, 321, 0.9725, 1.82101e-19, 7.28406e-15, 0.0434918
 9060, 322, 0.9725, 2.02986e-19, 8.11943e-15, 0.0434918
 9090, 323, 0.9725, 2.26183e-19, 9.04731e-15, 0.0434918
 9120, 324, 0.9725, 2.5194e-19, 1.00776e-14, 0.0434918
 9150, 325, 0.9725, 2.80528e-19, 1.12211e-14, 0.0434918
 9180, 326, 0.9725, 3.12249e-19, 1.249e-14, 0.0434919
 9210, 327, 0.9725, 3.47432e-19, 1.38973e-14, 0.0434918
 9240, 328, 0.9725, 3.86443e-19, 1.54577e-14, 0.0434918
 9270, 329, 0.9725, 4.29681e-19, 1.71873e-14, 0.0434918
 9300, 330, 0.9725, 4.7759e-19, 1.91036e-14, 0.0434918
 9330, 331, 0.9725, 5.30655e-19, 2.12262e-14, 0.0434918
 9360, 332, 0.9725, 5.8941e-19, 2.35764e-14, 0.0434918
 9390, 333, 0.9725, 6.54444e-19, 2.61778e-14, 0.0434918
 9420, 334, 0.9725, 7.26403e-19, 2.90561e-14, 0.0434918
 9450, 335, 0.9725, 8.05998e-19, 3.22399e-14, 0.0434918
 9480, 336, 0.9725, 8.9401e-19, 3.57604e-14, 0.0434918
 9510, 337, 0.9725, 9.91295e-19, 3.96518e-14, 0.0434918
 9540, 338, 0.9725, 1.09879e-18, 4.39518e-14, 0.0434918
 9570, 339, 0.9725, 1.21754e-18, 4.87017e-14, 0.0434918
 9600, 340, 0.9725, 1.34867e-18, 5.39469e-14, 0.0434919
 9630, 341, 0.9725, 1.49343e-18, 5.97371e-14, 0.0434918
 9660, 342, 0.9725, 1.65317e-18, 6.61268e-14, 0.0434918
 9690, 343, 0.9725, 1.8294e-18, 7.31759e-14, 0.0434918
 9720, 344, 0.9725, 2.02375e-18, 8.09498e-14, 0.0434918
 9750, 345, 0.9725, 2.23801e-18, 8.95204e-14, 0.0434918
 9780, 346, 0.9725, 2.47415e-18, 9.89662e-14, 0.0434918
 9810, 347, 0.9725, 2.73433e-18, 1.09373e-13, 0.0434918
 9840, 348, 0.9725, 3.02089e-18, 1.20836e-13, 0.0434918
 9870, 349, 0.9725, 3.33642e-18, 1.33457e-13, 0.0434918
 9900, 350, 0.9725, 3.68373e-18, 1.47349e-13, 0.0434918
 9930, 351, 0.9725, 4.0659e-18, 1.62636e-13, 0.0434918
 9960, 352, 0.9725, 4.4863e-18, 1.79452e-13, 0.0434918
 9990, 353, 0.9725, 4.94862e-18, 1.97945e-13, 0.0434918
 10020, 354, 0.9725, 5.45687e-18, 2.18275e-13, 0.0434918
 10050, 355, 0.9725, 6.01545e-18, 2.40618e-13, 0.0434918
 10080, 356, 0.9725, 6.62915e-18, 2.65166e-13, 0.0434919
 10110, 357, 0.9725, 7.30321e-18, 2.92128e-13, 0.0434918
 10140, 358, 0.9725, 8.04334e-18, 3.21734e-13, 0.0434918
 10170, 359, 0.9725, 8.85577e-18, 3.54231e-13, 0.0434918
 10200, 360, 0.9725, 9.7473e-18, 3.89892e-13, 0.0434918
 10230, 361, 0.9725, 1.07253e-17, 4.29014e-13, 0.0434918
 10260, 362, 0.9725, 1.1798e-17, 4.71918e-13, 0.0434918
 10290, 363, 0.9725, 1.2974e-17, 5.18959e-13, 0.0434918
 10320, 364, 0.9725, 1.42629e-17, 5.70517e-13, 0.0434918
 10350, 365, 0.9725, 1.56753e-17, 6.27012e-13, 0.0434918
 10380, 366, 0.9725, 1.72225e-17, 6.88898e-13, 0.0434919
 10410, 367, 0.9725, 1.89167e-17, 7.5667e-13, 0.0434918
 10440, 368, 0.9725, 2.07716e-17, 8.30865e-13, 0.0434918
 10470, 369, 0.9725, 2.28017e-17, 9.1207e-13, 0.0434918
 10500, 370, 0.9725, 2.5023e-17, 1.00092e-12, 0.0434918
 10530, 371, 0.9725, 2.74528e-17, 1.09811e-12, 0.0434918
 10560, 372, 0.9725, 3.01098e-17, 1.20439e-12, 0.0434918
 10590, 373, 0.9725, 3.30145e-17, 1.32058e-12, 0.0434918
 10620, 374, 0.9725, 3.61892e-17, 1.44757e-12, 0.0434918
 10650, 375, 0.9725, 3.96579e-17, 1.58631e-12, 0.0434918
 10680, 376, 0.9725, 4.34468e-17, 1.73787e-12, 0.0434918
 10710, 377, 0.9725, 4.75843e-17, 1.90337e-12, 0.0434918
 10740, 378, 0.9725, 5.21013e-17, 2.08405e-12, 0.0434918
 10770, 379, 0.9725, 5.70313e-17, 2.28125e-12, 0.0434918
 10800, 380, 0.9725, 6.24104e-17, 2.49642e-12, 0.0434918
 10830, 381, 0.9725, 6.82781e-17, 2.73112e-12, 0.0434918
 10860, 382, 0.9725, 7.46769e-17, 2.98708e-12, 0.0434918
 10890, 383, 0.9725, 8.16532e-17, 3.26613e-12, 0.0434918
 10920, 384, 0.9725, 8.92569e-17, 3.57027e-12, 0.0434918
 10950, 385, 0.9725, 9.75422e-17, 3.90169e-12, 0.0434918
 10980, 386, 0.9725, 1.06568e-16, 4.26272e-12, 0.0434918
 11010, 387, 0.9725, 1.16398e-16, 4.65591e-12, 0.0434918
 11040, 388, 0.9725, 1.271e-16, 5.08401e-12, 0.0434918
 11070, 389, 0.9725, 1.3875e-16, 5.54999e-12, 0.0434918
 11100, 390, 0.9725, 1.51427e-16, 6.05709e-12, 0.0434918
 11130, 391, 0.9725, 1.65219e-16, 6.60877e-12, 0.0434918
 11160, 392, 0.9725, 1.80221e-16, 7.20882e-12, 0.0434918
 11190, 393, 0.9725, 1.96532e-16, 7.8613e-12, 0.0434918
 11220, 394, 0.9725, 2.14265e-16, 8.5706e-12, 0.0434918
 11250, 395, 0.9725, 2.33537e-16, 9.34149e-12, 0.0434917
 11280, 396, 0.9725, 2.54477e-16, 1.01791e-11, 0.0434918
 11310, 397, 0.9725, 2.77224e-16, 1.1089e-11, 0.0434918
 11340, 398, 0.9725, 3.01927e-16, 1.20771e-11, 0.0434918
 11370, 399, 0.9725, 3.28748e-16, 1.31499e-11, 0.0434918
 11400, 400, 0.9725, 3.5786e-16, 1.43144e-11, 0.0434918
 11430, 401, 0.9725, 3.89453e-16, 1.55781e-11, 0.0434918
 11460, 402, 0.9725, 4.23728e-16, 1.69491e-11, 0.0434917
 11490, 403, 0.9725, 4.60905e-16, 1.84362e-11, 0.0434918
 11520, 404, 0.9725, 5.0122e-16, 2.00488e-11, 0.0434918
 11550, 405, 0.9725, 5.44926e-16, 2.1797e-11, 0.0434919
 11580, 406, 0.9725, 5.92297e-16, 2.36919e-11, 0.0434918
 11610, 407, 0.9725, 6.43628e-16, 2.57451e-11, 0.0434918
 11640, 408, 0.9725, 6.99238e-16, 2.79695e-11, 0.0434918
 11670, 409, 0.9725, 7.59467e-16, 3.03787e-11, 0.0434918
 11700, 410, 0.9725, 8.24685e-16, 3.29874e-11, 0.0434918
 11730, 411, 0.9725, 8.95287e-16, 3.58115e-11, 0.0434918
 11760, 412, 0.9725, 9.71701e-16, 3.88681e-11, 0.0434918
 11790, 413, 0.9725, 1.05439e-15, 4.21754e-11, 0.0434918
 11820, 414, 0.9725, 1.14383e-15, 4.57534e-11, 0.0434918
 11850, 415, 0.9725, 1.24058e-15, 4.96231e-11, 0.0434918
 11880, 416, 0.9725, 1.34519e-15, 5.38074e-11, 0.0434918
 11910, 417, 0.9725, 1.45827e-15, 5.83309e-11, 0.0434918
 11940, 418, 0.9725, 1.5805e-15, 6.32199e-11, 0.0434918
 11970, 419, 0.9725, 1.71257e-15, 6.85027e-11, 0.0434918
 12000, 420, 0.9725, 1.85524e-15, 7.42098e-11, 0.0434918
 12030, 421, 0.9725, 2.00934e-15, 8.03738e-11, 0.0434918
 12060, 422, 0.9725, 2.17574e-15, 8.70298e-11, 0.0434918
 12090, 423, 0.9725, 2.35539e-15, 9.42155e-11, 0.0434918
 12120, 424, 0.9725, 2.54928e-15, 1.01971e-10, 0.0434918
 12150, 425, 0.9725, 2.75851e-15, 1.1034e-10, 0.0434918
 12180, 426, 0.9725, 2.98424e-15, 1.1937e-10, 0.0434918
 12210, 427, 0.9725, 3.22772e-15, 1.29109e-10, 0.0434918
 12240, 428, 0.9725, 3.49028e-15, 1.39611e-10, 0.0434918
 12270, 429, 0.9725, 3.77335e-15, 1.50934e-10, 0.0434918
 12300, 430, 0.9725, 4.07848e-15, 1.63139e-10, 0.0434918
 12330, 431, 0.9725, 4.40731e-15, 1.76293e-10, 0.0434918
 12360, 432, 0.9725, 4.76161e-15, 1.90464e-10, 0.0434918
 12390, 433, 0.9725, 5.14326e-15, 2.0573e-10, 0.0434918
 12420, 434, 0.9725, 5.55429e-15, 2.22172e-10, 0.0434918
 12450, 435, 0.9725, 5.99687e-15, 2.39875e-10, 0.0434918
 12480, 436, 0.9725, 6.47331e-15, 2.58932e-10, 0.0434918
 12510, 437, 0.9725, 6.9861e-15, 2.79444e-10, 0.0434918
 12540, 438, 0.9725, 7.53789e-15, 3.01516e-10, 0.0434918
 12570, 439, 0.9725, 8.13153e-15, 3.25261e-10, 0.0434918
 12600, 440, 0.9725, 8.77006e-15, 3.50802e-10, 0.0434918
 12630, 441, 0.9725, 9.45672e-15, 3.78269e-10, 0.0434918
 12660, 442, 0.9725, 1.0195e-14, 4.078e-10, 0.0434918
 12690, 443, 0.9725, 1.09886e-14, 4.39544e-10, 0.0434918
 12720, 444, 0.9725, 1.18415e-14, 4.73661e-10, 0.0434918
 12750, 445, 0.9725, 1.2758e-14, 5.10319e-10, 0.0434918
 12780, 446, 0.9725, 1.37425e-14, 5.497e-10, 0.0434918
 12810, 447, 0.9725, 1.48e-14, 5.91998e-10, 0.0434918
 12840, 448, 0.9725, 1.59355e-14, 6.3742e-10, 0.0434918
 12870, 449, 0.9725, 1.71547e-14, 6.86187e-10, 0.0434918
 12900, 450, 0.9725, 1.84633e-14, 7.38533e-10, 0.0434918
 12930, 451, 0.9725, 1.98678e-14, 7.94712e-10, 0.0434918
 12960, 452, 0.9725, 2.13748e-14, 8.54991e-10, 0.0434918
 12990, 453, 0.9725, 2.29914e-14, 9.19657e-10, 0.0434918
 13020, 454, 0.9725, 2.47254e-14, 9.89016e-10, 0.0434918
 13050, 455, 0.9725, 2.65848e-14, 1.06339e-09, 0.0434918
 13080, 456, 0.9725, 2.85784e-14, 1.14314e-09, 0.0434918
 13110, 457, 0.9725, 3.07154e-14, 1.22862e-09, 0.0434918
 13140, 458, 0.9725, 3.30057e-14, 1.32023e-09, 0.0434918
 13170, 459, 0.9725, 3.54598e-14, 1.41839e-09, 0.0434918
 13200, 460, 0.9725, 3.80889e-14, 1.52355e-09, 0.0434918
 13230, 461, 0.9725, 4.09049e-14, 1.6362e-09, 0.0434918
 13260, 462, 0.9725, 4.39207e-14, 1.75683e-09, 0.0434918
 13290, 463, 0.9725, 4.71496e-14, 1.88599e-09, 0.0434918
 13320, 464, 0.9725, 5.06063e-14, 2.02425e-09, 0.0434917
 13350, 465, 0.9725, 5.43059e-14, 2.17223e-09, 0.0434918
 13380, 466, 0.9725, 5.82648e-14, 2.33059e-09, 0.0434918
 13410, 467, 0.9725, 6.25005e-14, 2.50002e-09, 0.0434918
 13440, 468, 0.9725, 6.70314e-14, 2.68126e-09, 0.0434918
 13470, 469, 0.9725, 7.18772e-14, 2.87509e-09, 0.0434918
 13500, 470, 0.9725, 7.70588e-14, 3.08235e-09, 0.0434918
 13530, 471, 0.9725, 8.25986e-14, 3.30394e-09, 0.0434918
 13560, 472, 0.9725, 8.85201e-14, 3.5408e-09, 0.0434918
 13590, 473, 0.9725, 9.48484e-14, 3.79394e-09, 0.0434918
 13620, 474, 0.9725, 1.0161e-13, 4.06442e-09, 0.0434918
 13650, 475, 0.9725, 1.08835e-13, 4.35338e-09, 0.0434918
 13680, 476, 0.9725, 1.16551e-13, 4.66203e-09, 0.0434918
 13710, 477, 0.9725, 1.24791e-13, 4.99166e-09, 0.0434918
 13740, 478, 0.9725, 1.3359e-13, 5.34362e-09, 0.0434918
 13770, 479, 0.9725, 1.42984e-13, 5.71935e-09, 0.0434918
 13800, 480, 0.9725, 1.5301e-13, 6.12041e-09, 0.0434918
 13830, 481, 0.9725, 1.6371e-13, 6.54841e-09, 0.0434918
 13860, 482, 0.9725, 1.75127e-13, 7.00508e-09, 0.0434918
 13890, 483, 0.9725, 1.87307e-13, 7.49227e-09, 0.0434918
 13920, 484, 0.9725, 2.00298e-13, 8.01191e-09, 0.0434918
 13950, 485, 0.9725, 2.14152e-13, 8.56608e-09, 0.0434918
 13980, 486, 0.9725, 2.28924e-13, 9.15697e-09, 0.0434919
 14010, 487, 0.9725, 2.44673e-13, 9.7869e-09, 0.0434918
 14040, 488, 0.9725, 2.61458e-13, 1.04583e-08, 0.0434918
 14070, 489, 0.9725, 2.79347e-13, 1.11739e-08, 0.0434918
 14100, 490, 0.9725, 2.98408e-13, 1.19363e-08, 0.0434918
 14130, 491, 0.9725, 3.18715e-13, 1.27486e-08, 0.0434918
 14160, 492, 0.9725, 3.40345e-13, 1.36138e-08, 0.0434918
 14190, 493, 0.9725, 3.63381e-13, 1.45352e-08, 0.0434918
 14220, 494, 0.9725, 3.87909e-13, 1.55164e-08, 0.0434918
 14250, 495, 0.9725, 4.14023e-13, 1.65609e-08, 0.0434919
 14280, 496, 0.9725, 4.41819e-13, 1.76728e-08, 0.0434918
 14310, 497, 0.9725, 4.71403e-13, 1.88561e-08, 0.0434918
 14340, 498, 0.9725, 5.02883e-13, 2.01153e-08, 0.0434918
 14370, 499, 0.9725, 5.36375e-13, 2.1455e-08, 0.0434917
 14400, 500, 0.9725, 5.72002e-13, 2.28801e-08, 0.0434919
 14430, 501, 0.9725, 6.09895e-13, 2.43958e-08, 0.0434918
 14460, 502, 0.9725, 6.5019e-13, 2.60076e-08, 0.0434918
 14490, 503, 0.9725, 6.93033e-13, 2.77213e-08, 0.0434918
 14520, 504, 0.9725, 7.38578e-13, 2.95431e-08, 0.0434918
 14550, 505, 0.9725, 7.86987e-13, 3.14795e-08, 0.0434918
 14580, 506, 0.9725, 8.38432e-13, 3.35373e-08, 0.0434918
 14610, 507, 0.9725, 8.93096e-13, 3.57238e-08, 0.0434918
 14640, 508, 0.9725, 9.51169e-13, 3.80468e-08, 0.0434918
 14670, 509, 0.9725, 1.01286e-12, 4.05142e-08, 0.0434918
 14700, 510, 0.9725, 1.07837e-12, 4.31348e-08, 0.0434918
 14730, 511, 0.9725, 1.14794e-12, 4.59175e-08, 0.0434918
 14760, 512, 0.9725, 1.2218e-12, 4.8872e-08, 0.0434918
 14790, 513, 0.9725, 1.30021e-12, 5.20083e-08, 0.0434918
 14820, 514, 0.9725, 1.38343e-12, 5.53371e-08, 0.0434919
 14850, 515, 0.9725, 1.47174e-12, 5.88698e-08, 0.0434918
 14880, 516, 0.9725, 1.56545e-12, 6.26181e-08, 0.0434918
 14910, 517, 0.9725, 1.66487e-12, 6.65947e-08, 0.0434918
 14940, 518, 0.9725, 1.77032e-12, 7.08128e-08, 0.0434918
 14970, 519, 0.9725, 1.88216e-12, 7.52864e-08, 0.0434918
 15000, 520, 0.9725, 2.00076e-12, 8.00302e-08, 0.0434918
 15030, 521, 0.9725, 2.1265e-12, 8.50599e-08, 0.0434918
 15060, 522, 0.9725, 2.2598e-12, 9.03918e-08, 0.0434919
 15090, 523, 0.9725, 2.40108e-12, 9.60433e-08, 0.0434918
 15120, 524, 0.9725, 2.55081e-12, 1.02033e-07, 0.0434918
 15150, 525, 0.9725, 2.70947e-12, 1.08379e-07, 0.0434918
 15180, 526, 0.9725, 2.87757e-12, 1.15103e-07, 0.0434919
 15210, 527, 0.9725, 3.05563e-12, 1.22225e-07, 0.0434918
 15240, 528, 0.9725, 3.24422e-12, 1.29769e-07, 0.0434918
 15270, 529, 0.9725, 3.44394e-12, 1.37758e-07, 0.0434918
 15300, 530, 0.9725, 3.65541e-12, 1.46216e-07, 0.0434918
 15330, 531, 0.9725, 3.87929e-12, 1.55172e-07, 0.0434918
 15360, 532, 0.9725, 4.11627e-12, 1.64651e-07, 0.0434918
 15390, 533, 0.9725, 4.36709e-12, 1.74684e-07, 0.0434919
 15420, 534, 0.9725, 4.63251e-12, 1.85301e-07, 0.0434918
 15450, 535, 0.9725, 4.91335e-12, 1.96534e-07, 0.0434918
 15480, 536, 0.9725, 5.21046e-12, 2.08418e-07, 0.0434919
 15510, 537, 0.9725, 5.52472e-12, 2.20989e-07, 0.0434918
 15540, 538, 0.9725, 5.8571e-12, 2.34284e-07, 0.0434918
 15570, 539, 0.9725, 6.20858e-12, 2.48343e-07, 0.0434918
 15600, 540, 0.9725, 6.58022e-12, 2.63209e-07, 0.0434918
 15630, 541, 0.9725, 6.9731e-12, 2.78924e-07, 0.0434918
 15660, 542, 0.9725, 7.38838e-12, 2.95535e-07, 0.0434918
 15690, 543, 0.9725, 7.82729e-12, 3.13092e-07, 0.0434918
 15720, 544, 0.9725, 8.2911e-12, 3.31644e-07, 0.0434918
 15750, 545, 0.9725, 8.78116e-12, 3.51246e-07, 0.0434918
 15780, 546, 0.9725, 9.29888e-12, 3.71955e-07, 0.0434918
 15810, 547, 0.9725, 9.84575e-12, 3.9383e-07, 0.0434918
 15840, 548, 0.9725, 1.04233e-11, 4.16933e-07, 0.0434918
 15870, 549, 0.9725, 1.10333e-11, 4.4133e-07, 0.0434918
 15900, 550, 0.9725, 1.16773e-11, 4.67091e-07, 0.0434918
 15930, 551, 0.9725, 1.23572e-11, 4.94287e-07, 0.0434918
 15960, 552, 0.9725, 1.30749e-11, 5.22994e-07, 0.0434918
 15990, 553, 0.9725, 1.38323e-11, 5.53294e-07, 0.0434918
 16020, 554, 0.9725, 1.46317e-11, 5.85269e-07, 0.0434918
 16050, 555, 0.9725, 1.54752e-11, 6.19007e-07, 0.0434918
 16080, 556, 0.9725, 1.63651e-11, 6.54603e-07, 0.0434918
 16110, 557, 0.9725, 1.73038e-11, 6.92152e-07, 0.0434918
 16140, 558, 0.9725, 1.82939e-11, 7.31756e-07, 0.0434918
 16170, 559, 0.9725, 1.93381e-11, 7.73523e-07, 0.0434917
 16200, 560, 0.9725, 2.04391e-11, 8.17566e-07, 0.0434918
 16230, 561, 0.9725, 2.16e-11, 8.64001e-07, 0.0434918
 16260, 562, 0.9725, 2.28238e-11, 9.12953e-07, 0.0434918
 16290, 563, 0.9725, 2.41138e-11, 9.64551e-07, 0.0434918
 16320, 564, 0.9725, 2.54733e-11, 1.01893e-06, 0.0434918
 16350, 565, 0.9725, 2.69059e-11, 1.07624e-06, 0.0434918
 16380, 566, 0.9725, 2.84154e-11, 1.13662e-06, 0.0434918
 16410, 567, 0.9725, 3.00057e-11, 1.20023e-06, 0.0434918
 16440, 568, 0.9725, 3.16809e-11, 1.26724e-06, 0.0434918
 16470, 569, 0.9725, 3.34453e-11, 1.33781e-06, 0.0434918
 16500, 570, 0.9725, 3.53034e-11, 1.41214e-06, 0.0434918
 16530, 571, 0.9725, 3.726e-11, 1.4904e-06, 0.0434918
 16560, 572, 0.9725, 3.932e-11, 1.5728e-06, 0.0434918
 16590, 573, 0.9725, 4.14886e-11, 1.65955e-06, 0.0434918
 16620, 574, 0.9725, 4.37713e-11, 1.75085e-06, 0.0434918
 16650, 575, 0.9725, 4.61738e-11, 1.84695e-06, 0.0434918
 16680, 576, 0.9725, 4.87019e-11, 1.94808e-06, 0.0434918
 16710, 577, 0.9725, 5.13621e-11, 2.05448e-06, 0.0434918
 16740, 578, 0.9725, 5.41608e-11, 2.16643e-06, 0.0434918
 16770, 579, 0.9725, 5.71048e-11, 2.28419e-06, 0.0434918
 16800, 580, 0.9725, 6.02015e-11, 2.40806e-06, 0.0434918
 16830, 581, 0.9725, 6.34582e-11, 2.53833e-06, 0.0434919
 16860, 582, 0.9725, 6.68828e-11, 2.67531e-06, 0.0434919
 16890, 583, 0.9725, 7.04836e-11, 2.81935e-06, 0.0434918
 16920, 584, 0.9725, 7.42692e-11, 2.97077e-06, 0.0434917
 16950, 585, 0.9725, 7.82486e-11, 3.12994e-06, 0.0434919
 16980, 586, 0.9725, 8.24311e-11, 3.29725e-06, 0.0434919
 17010, 587, 0.9725, 8.68267e-11, 3.47307e-06, 0.0434918
 17040, 588, 0.9725, 9.14457e-11, 3.65783e-06, 0.0434918
 17070, 589, 0.9725, 9.62988e-11, 3.85195e-06, 0.0434918
 17100, 590, 0.9725, 1.01397e-10, 4.05589e-06, 0.0434918
 17130, 591, 0.9725, 1.06753e-10, 4.27012e-06, 0.0434918
 17160, 592, 0.9725, 1.12378e-10, 4.49513e-06, 0.0434918
 17190, 593, 0.9725, 1.18286e-10, 4.73143e-06, 0.0434918
 17220, 594, 0.9725, 1.24489e-10, 4.97957e-06, 0.0434919
 17250, 595, 0.9725, 1.31003e-10, 5.24011e-06, 0.0434918
 17280, 596, 0.9725, 1.37841e-10, 5.51363e-06, 0.0434918
 17310, 597, 0.9725, 1.45019e-10, 5.80074e-06, 0.0434919
 17340, 598, 0.9725, 1.52553e-10, 6.1021e-06, 0.0434918
 17370, 599, 0.9725, 1.60459e-10, 6.41837e-06, 0.0434918
 17400, 600, 0.9725, 1.68756e-10, 6.75025e-06, 0.0434918
 17430, 601, 0.9725, 1.77462e-10, 7.09847e-06, 0.0434919
 17460, 602, 0.9725, 1.86595e-10, 7.46379e-06, 0.0434919
 17490, 603, 0.9725, 1.96176e-10, 7.84702e-06, 0.0434918
 17520, 604, 0.9725, 2.06225e-10, 8.24898e-06, 0.0434919
 17550, 605, 0.9725, 2.16764e-10, 8.67055e-06, 0.0434919
 17580, 606, 0.9725, 2.27816e-10, 9.11263e-06, 0.0434918
 17610, 607, 0.9725, 2.39404e-10, 9.57617e-06, 0.0434919
 17640, 608, 0.9725, 2.51554e-10, 1.00621e-05, 0.0434919
 17670, 609, 0.9725, 2.6429e-10, 1.05716e-05, 0.0434919
 17700, 610, 0.9725, 2.7764e-10, 1.11056e-05, 0.0434918
 17730, 611, 0.9725, 2.91632e-10, 1.16653e-05, 0.0434919
 17760, 612, 0.9725, 3.06296e-10, 1.22518e-05, 0.0434919
 17790, 613, 0.9725, 3.21661e-10, 1.28664e-05, 0.0434919
 17820, 614, 0.9725, 3.37759e-10, 1.35104e-05, 0.0434919
 17850, 615, 0.9725, 3.54624e-10, 1.4185e-05, 0.0434919
 17880, 616, 0.9725, 3.7229e-10, 1.48916e-05, 0.0434919
 17910, 617, 0.9725, 3.90794e-10, 1.56318e-05, 0.0434918
 17940, 618, 0.9725, 4.10173e-10, 1.64069e-05, 0.0434919
 17970, 619, 0.9725, 4.30466e-10, 1.72186e-05, 0.0434919
 18000, 620, 0.9725, 4.51714e-10, 1.80686e-05, 0.0434919
 18030, 621, 0.9725, 4.7396e-10, 1.89584e-05, 0.0434919
 18060, 622, 0.9725, 4.97248e-10, 1.98899e-05, 0.0434919
 18090, 623, 0.9725, 5.21625e-10, 2.0865e-05, 0.0434919
 18120, 624, 0.9725, 5.47138e-10, 2.18855e-05, 0.0434919
 18150, 625, 0.9725, 5.73838e-10, 2.29535e-05, 0.043492
 18180, 626, 0.9725, 6.01777e-10, 2.40711e-05, 0.0434919
 18210, 627, 0.9725, 6.3101e-10, 2.52404e-05, 0.0434919
 18240, 628, 0.9725, 6.61593e-10, 2.64637e-05, 0.0434919
 18270, 629, 0.9725, 6.93586e-10, 2.77434e-05, 0.0434919
 18300, 630, 0.9725, 7.27049e-10, 2.9082e-05, 0.043492
 18330, 631, 0.9725, 7.62048e-10, 3.04819e-05, 0.0434919
 18360, 632, 0.972499, 7.98649e-10, 3.1946e-05, 0.043492
 18390, 633, 0.972499, 8.36921e-10, 3.34768e-05, 0.043492
 18420, 634, 0.972499, 8.76936e-10, 3.50775e-05, 0.043492
 18450, 635, 0.972499, 9.1877e-10, 3.67508e-05, 0.043492
 18480, 636, 0.972499, 9.62502e-10, 3.85001e-05, 0.0434921
 18510, 637, 0.972499, 1.00821e-09, 4.03284e-05, 0.043492
 18540, 638, 0.972499, 1.05598e-09, 4.22394e-05, 0.0434921
 18570, 639, 0.972499, 1.10591e-09, 4.42363e-05, 0.0434921
 18600, 640, 0.972499, 1.15808e-09, 4.6323e-05, 0.043492
 18630, 641, 0.972499, 1.21258e-09, 4.85033e-05, 0.0434921
 18660, 642, 0.972499, 1.26952e-09, 5.0781e-05, 0.0434921
 18690, 643, 0.972499, 1.32901e-09, 5.31604e-05, 0.0434921
 18720, 644, 0.972499, 1.39114e-09, 5.56457e-05, 0.0434922
 18750, 645, 0.972499, 1.45603e-09, 5.82414e-05, 0.0434921
 18780, 646, 0.972499, 1.5238e-09, 6.09521e-05, 0.0434922
 18810, 647, 0.972499, 1.59457e-09, 6.37827e-05, 0.0434922
 18840, 648, 0.972499, 1.66846e-09, 6.67382e-05, 0.0434922
 18870, 649, 0.972499, 1.74559e-09, 6.98238e-05, 0.0434922
 18900, 650, 0.972499, 1.82612e-09, 7.30449e-05, 0.0434922
 18930, 651, 0.972499, 1.91018e-09, 7.64071e-05, 0.0434923
 18960, 652, 0.972499, 1.99791e-09, 7.99162e-05, 0.0434923
 18990, 653, 0.972499, 2.08946e-09, 8.35785e-05, 0.0434923
 19020, 654, 0.972499, 2.185e-09, 8.74001e-05, 0.0434923
 19050, 655, 0.972499, 2.28469e-09, 9.13877e-05, 0.0434923
 19080, 656, 0.972498, 2.3887e-09, 9.5548e-05, 0.0434924
 19110, 657, 0.972498, 2.4972e-09, 9.98882e-05, 0.0434924
 19140, 658, 0.972498, 2.61039e-09, 0.000104415, 0.0434924
 19170, 659, 0.972498, 2.72844e-09, 0.000109138, 0.0434925
 19200, 660, 0.972498, 2.85156e-09, 0.000114063, 0.0434925
 19230, 661, 0.972498, 2.97996e-09, 0.000119198, 0.0434925
 19260, 662, 0.972498, 3.11384e-09, 0.000124554, 0.0434926
 19290, 663, 0.972498, 3.25344e-09, 0.000130138, 0.0434926
 19320, 664, 0.972498, 3.39897e-09, 0.000135959, 0.0434926
 19350, 665, 0.972498, 3.55069e-09, 0.000142027, 0.0434927
 19380, 666, 0.972498, 3.70883e-09, 0.000148353, 0.0434927
 19410, 667, 0.972497, 3.87365e-09, 0.000154946, 0.0434927
 19440, 668, 0.972497, 4.04542e-09, 0.000161817, 0.0434927
 19470, 669, 0.972497, 4.22443e-09, 0.000168977, 0.0434928
 19500, 670, 0.972497, 4.41095e-09, 0.000176438, 0.0434928
 19530, 671, 0.972497, 4.60528e-09, 0.000184211, 0.0434928
 19560, 672, 0.972497, 4.80773e-09, 0.000192309, 0.043493
 19590, 673, 0.972497, 5.01863e-09, 0.000200745, 0.043493
 19620, 674, 0.972497, 5.23831e-09, 0.000209532, 0.0434931
 19650, 675, 0.972496, 5.4671e-09, 0.000218684, 0.0434931
 19680, 676, 0.972496, 5.70538e-09, 0.000228215, 0.0434931
 19710, 677, 0.972496, 5.95351e-09, 0.00023814, 0.0434933
 19740, 678, 0.972496, 6.21187e-09, 0.000248475, 0.0434932
 19770, 679, 0.972496, 6.48086e-09, 0.000259235, 0.0434933
 19800, 680, 0.972495, 6.76091e-09, 0.000270436, 0.0434934
 19830, 681, 0.972495, 7.05242e-09, 0.000282097, 0.0434934
 19860, 682, 0.972495, 7.35586e-09, 0.000294234, 0.0434935
 19890, 683, 0.972495, 7.67168e-09, 0.000306867, 0.0434936
 19920, 684, 0.972495, 8.00035e-09, 0.000320014, 0.0434937
 19950, 685, 0.972494, 8.34237e-09, 0.000333695, 0.0434937
 19980, 686, 0.972494, 8.69826e-09, 0.00034793, 0.0434938
 20010, 687, 0.972494, 9.06854e-09, 0.000362741, 0.0434939
 20040, 688, 0.972493, 9.45376e-09, 0.00037815, 0.043494
 20070, 689, 0.972493, 9.85449e-09, 0.000394179, 0.0434941
 20100, 690, 0.972493, 1.02713e-08, 0.000410853, 0.0434942
 20130, 691, 0.972493, 1.07049e-08, 0.000428195, 0.0434943
 20160, 692, 0.972492, 1.11558e-08, 0.00044623, 0.0434944
 20190, 693, 0.972492, 1.16246e-08, 0.000464985, 0.0434945
 20220, 694, 0.972492, 1.21122e-08, 0.000484488, 0.0434946
 20250, 695, 0.972491, 1.26191e-08, 0.000504765, 0.0434948
 20280, 696, 0.972491, 1.31462e-08, 0.000525847, 0.0434948
 20310, 697, 0.97249, 1.36941e-08, 0.000547763, 0.0434949
 20340, 698, 0.97249, 1.42636e-08, 0.000570545, 0.0434951
 20370, 699, 0.97249, 1.48556e-08, 0.000594224, 0.0434952
 20400, 700, 0.972489, 1.54708e-08, 0.000618834, 0.0434954
 20430, 701, 0.972489, 1.61102e-08, 0.00064441, 0.0434956
 20460, 702, 0.972488, 1.67747e-08, 0.000670987, 0.0434957
 20490, 703, 0.972488, 1.7465e-08, 0.000698602, 0.0434958
 20520, 704, 0.972487, 1.81823e-08, 0.000727293, 0.0434961
 20550, 705, 0.972487, 1.89275e-08, 0.000757101, 0.0434962
 20580, 706, 0.972486, 1.97016e-08, 0.000788066, 0.0434964
 20610, 707, 0.972485, 2.05057e-08, 0.00082023, 0.0434965
 20640, 708, 0.972485, 2.13409e-08, 0.000853637, 0.0434968
 20670, 709, 0.972484, 2.22083e-08, 0.000888332, 0.043497
 20700, 710, 0.972483, 2.31091e-08, 0.000924363, 0.0434971
 20730, 711, 0.972483, 2.40444e-08, 0.000961777, 0.0434973
 20760, 712, 0.972482, 2.50156e-08, 0.00100062, 0.0434976
 20790, 713, 0.972481, 2.6024e-08, 0.00104096, 0.0434978
 20820, 714, 0.97248, 2.70708e-08, 0.00108283, 0.043498
 20850, 715, 0.97248, 2.81574e-08, 0.0011263, 0.0434983
 20880, 716, 0.972479, 2.92854e-08, 0.00117142, 0.0434986
 20910, 717, 0.972478, 3.04561e-08, 0.00121825, 0.0434989
 20940, 718, 0.972477, 3.16711e-08, 0.00126685, 0.0434991
 20970, 719, 0.972476, 3.2932e-08, 0.00131728, 0.0434994
 21000, 720, 0.972475, 3.42404e-08, 0.00136962, 0.0434997
 21030, 721, 0.972474, 3.5598e-08, 0.00142392, 0.0435
 21060, 722, 0.972473, 3.70066e-08, 0.00148026, 0.0435004
 21090, 723, 0.972472, 3.84678e-08, 0.00153871, 0.0435007
 21120, 724, 0.97247, 3.99837e-08, 0.00159935, 0.043501
 21150, 725, 0.972469, 4.1556e-08, 0.00166224, 0.0435015
 21180, 726, 0.972468, 4.31869e-08, 0.00172748, 0.0435017
 21210, 727, 0.972467, 4.48783e-08, 0.00179513, 0.0435021
 21240, 728, 0.972465, 4.66324e-08, 0.0018653, 0.0435025
 21270, 729, 0.972464, 4.84513e-08, 0.00193805, 0.0435029
 21300, 730, 0.972462, 5.03373e-08, 0.00201349, 0.0435034
 21330, 731, 0.972461, 5.22928e-08, 0.00209171, 0.0435039
 21360, 732, 0.972459, 5.432e-08, 0.0021728, 0.0435042
 21390, 733, 0.972458, 5.64217e-08, 0.00225687, 0.0435047
 21420, 734, 0.972456, 5.86002e-08, 0.00234401, 0.0435054
 21450, 735, 0.972454, 6.08582e-08, 0.00243433, 0.0435057
 21480, 736, 0.972452, 6.31985e-08, 0.00252794, 0.0435063
 21510, 737, 0.97245, 6.56239e-08, 0.00262496, 0.0435069
 21540, 738, 0.972448, 6.81373e-08, 0.00272549, 0.0435075
 21570, 739, 0.972446, 7.07417e-08, 0.00282967, 0.043508
 21600, 740, 0.972444, 7.34401e-08, 0.00293761, 0.0435086
 21630, 741, 0.972442, 7.62359e-08, 0.00304944, 0.0435092
 21660, 742, 0.972439, 7.91323e-08, 0.00316529, 0.0435099
 21690, 743, 0.972437, 8.21327e-08, 0.00328531, 0.0435106
 21720, 744, 0.972434, 8.52406e-08, 0.00340962, 0.0435114
 21750, 745, 0.972432, 8.84597e-08, 0.00353839, 0.0435121
 21780, 746, 0.972429, 9.17936e-08, 0.00367174, 0.0435128
 21810, 747, 0.972426, 9.52462e-08, 0.00380985, 0.0435136
 21840, 748, 0.972423, 9.88216e-08, 0.00395286, 0.0435144
 21870, 749, 0.97242, 1.02524e-07, 0.00410095, 0.0435152
 21900, 750, 0.972417, 1.06357e-07, 0.00425428, 0.0435161
 21930, 751, 0.972414, 1.10326e-07, 0.00441302, 0.0435169
 21960, 752, 0.972411, 1.14434e-07, 0.00457736, 0.0435179
 21990, 753, 0.972407, 1.18687e-07, 0.00474748, 0.0435189
 22020, 754, 0.972404, 1.23089e-07, 0.00492357, 0.0435199
 22050, 755, 0.9724, 1.27646e-07, 0.00510583, 0.043521
 22080, 756, 0.972396, 1.32362e-07, 0.00529446, 0.043522
 22110, 757, 0.972392, 1.37242e-07, 0.00548968, 0.0435231
 22140, 758, 0.972388, 1.42292e-07, 0.00569169, 0.0435242
 22170, 759, 0.972383, 1.47518e-07, 0.00590072, 0.0435254
 22200, 760, 0.972379, 1.52925e-07, 0.00611699, 0.0435267
 22230, 761, 0.972374, 1.58519e-07, 0.00634076, 0.0435279
 22260, 762, 0.972369, 1.64306e-07, 0.00657225, 0.0435293
 22290, 763, 0.972364, 1.70293e-07, 0.00681171, 0.0435306
 22320, 764, 0.972359, 1.76485e-07, 0.00705942, 0.0435319
 22350, 765, 0.972354, 1.82891e-07, 0.00731562, 0.0435334
 22380, 766, 0.972348, 1.89515e-07, 0.00758061, 0.0435349
 22410, 767, 0.972342, 1.96366e-07, 0.00785465, 0.0435365
 22440, 768, 0.972336, 2.03451e-07, 0.00813804, 0.043538
 22470, 769, 0.97233, 2.10777e-07, 0.00843108, 0.0435396
 22500, 770, 0.972324, 2.18352e-07, 0.00873408, 0.0435414
 22530, 771, 0.972317, 2.26184e-07, 0.00904735, 0.0435432
 22560, 772, 0.97231, 2.3428e-07, 0.00937122, 0.0435449
 22590, 773, 0.972303, 2.42651e-07, 0.00970603, 0.0435468
 22620, 774, 0.972296, 2.51303e-07, 0.0100521, 0.0435489
 22650, 775, 0.972288, 2.60247e-07, 0.0104099, 0.0435508
 22680, 776, 0.97228, 2.6949e-07, 0.0107796, 0.0435529
 22710, 777, 0.972272, 2.79043e-07, 0.0111617, 0.0435551
 22740, 778, 0.972263, 2.88916e-07, 0.0115566, 0.0435572
 22770, 779, 0.972254, 2.99118e-07, 0.0119647, 0.0435596
 22800, 780, 0.972245, 3.0966e-07, 0.0123864, 0.0435619
 22830, 781, 0.972236, 3.20552e-07, 0.0128221, 0.0435643
 22860, 782, 0.972226, 3.31806e-07, 0.0132722, 0.0435668
 22890, 783, 0.972216, 3.43432e-07, 0.0137373, 0.0435695
 22920, 784, 0.972205, 3.55441e-07, 0.0142177, 0.0435722
 22950, 785, 0.972194, 3.67847e-07, 0.0147139, 0.043575
 22980, 786, 0.972183, 3.80661e-07, 0.0152265, 0.0435778
 23010, 787, 0.972172, 3.93896e-07, 0.0157558, 0.0435807
 23040, 788, 0.97216, 4.07564e-07, 0.0163026, 0.0435838
 23070, 789, 0.972147, 4.2168e-07, 0.0168672, 0.043587
 23100, 790, 0.972134, 4.36256e-07, 0.0174502, 0.0435903
 23130, 791, 0.972121, 4.51306e-07, 0.0180523, 0.0435936
 23160, 792, 0.972107, 4.66846e-07, 0.0186739, 0.0435971
 23190, 793, 0.972093, 4.8289e-07, 0.0193156, 0.0436007
 23220, 794, 0.972078, 4.99454e-07, 0.0199782, 0.0436043
 23250, 795, 0.972063, 5.16553e-07, 0.0206621, 0.0436081
 23280, 796, 0.972047, 5.34203e-07, 0.0213681, 0.0436121
 23310, 797, 0.972031, 5.52421e-07, 0.0220968, 0.0436162
 23340, 798, 0.972014, 5.71224e-07, 0.022849, 0.0436204
 23370, 799, 0.971997, 5.9063e-07, 0.0236252, 0.0436246
 23400, 800, 0.971979, 6.10657e-07, 0.0244263, 0.0436291