File: examples/Birch_TGA_Example/Work/Cone_zba3hngy/birch_tga_1step_10_tga.csv
s,C,g/g,1/s,W/g,W/g
Time,Temp,Mass,MLR,MCC,DSC
 6, 21.0007, 0.999998, 4.369e-07, 0.0000000E+000, 0.236481
 12, 22.0007, 0.999995, 5.01762e-07, 0.0000000E+000, 0.236626
 18, 23.0007, 0.999992, 5.75705e-07, 0.0000000E+000, 0.236791
 24, 24.0007, 0.999988, 6.5992e-07, 0.0000000E+000, 0.236979
 30, 25.0007, 0.999984, 7.55746e-07, 0.0000000E+000, 0.237193
 36, 26.0007, 0.999979, 8.64679e-07, 0.0000000E+000, 0.237436
 42, 27.0007, 0.999973, 9.88398e-07, 0.0000000E+000, 0.237712
 48, 28.0007, 0.999967, 1.12878e-06, 0.0000000E+000, 0.238026
 54, 29.0007, 0.99996, 1.28792e-06, 0.0000000E+000, 0.238381
 60, 30.0007, 0.999951, 1.46815e-06, 0.0000000E+000, 0.238783
 66, 31.0007, 0.999942, 1.67208e-06, 0.0000000E+000, 0.239238
 72, 32.0007, 0.999931, 1.90261e-06, 0.0000000E+000, 0.239752
 78, 33.0007, 0.999919, 2.16297e-06, 0.0000000E+000, 0.240332
 84, 34.0007, 0.999905, 2.45672e-06, 0.0000000E+000, 0.240988
 90, 35.0007, 0.999889, 2.78785e-06, 0.0000000E+000, 0.241726
 96, 36.0007, 0.999872, 3.16074e-06, 0.0000000E+000, 0.242557
 102, 37.0007, 0.999851, 3.58024e-06, 0.0000000E+000, 0.243492
 108, 38.0007, 0.999829, 4.05172e-06, 0.0000000E+000, 0.244543
 114, 39.0007, 0.999803, 4.58107e-06, 0.0000000E+000, 0.245723
 120, 40.0007, 0.999773, 5.17477e-06, 0.0000000E+000, 0.247046
 126, 41.0007, 0.99974, 5.83993e-06, 0.0000000E+000, 0.248528
 132, 42.0007, 0.999703, 6.58435e-06, 0.0000000E+000, 0.250187
 138, 43.0007, 0.999661, 7.41652e-06, 0.0000000E+000, 0.252041
 144, 44.0007, 0.999614, 8.34569e-06, 0.0000000E+000, 0.25411
 150, 45.0007, 0.999561, 9.38191e-06, 0.0000000E+000, 0.256418
 156, 46.0007, 0.999501, 1.0536e-05, 0.0000000E+000, 0.258988
 162, 47.0007, 0.999434, 1.18198e-05, 0.0000000E+000, 0.261846
 168, 48.0007, 0.999359, 1.32457e-05, 0.0000000E+000, 0.26502
 174, 49.0007, 0.999275, 1.48273e-05, 1.4945e-38, 0.268541
 180, 50.0007, 0.999181, 1.65786e-05, 2.16103e-38, 0.272438
 186, 51.0007, 0.999076, 1.85149e-05, 3.11771e-38, 0.276746
 192, 52.0007, 0.998958, 2.06518e-05, 4.48779e-38, 0.281499
 198, 53.0007, 0.998827, 2.30056e-05, 6.44553e-38, 0.286735
 204, 54.0007, 0.998682, 2.55932e-05, 9.23685e-38, 0.292488
 210, 55.0007, 0.99852, 2.84316e-05, 1.3208e-37, 0.298798
 216, 56.0007, 0.99834, 3.15376e-05, 1.88454e-37, 0.305701
 222, 57.0007, 0.998141, 3.49279e-05, 2.68311e-37, 0.313233
 228, 58.0007, 0.99792, 3.86181e-05, 3.81194e-37, 0.32143
 234, 59.0006, 0.997676, 4.26227e-05, 5.40424e-37, 0.330321
 240, 60.0006, 0.997408, 4.69538e-05, 7.64563e-37, 0.339934
 246, 61.0006, 0.997112, 5.1621e-05, 1.07942e-36, 0.350289
 252, 62.0006, 0.996788, 5.66299e-05, 1.5208e-36, 0.361396
 258, 63.0006, 0.996432, 6.19815e-05, 2.1383e-36, 0.373258
 264, 64.0006, 0.996043, 6.76707e-05, 3.00046e-36, 0.38586
 270, 65.0006, 0.995619, 7.36851e-05, 4.20182e-36, 0.399173
 276, 66.0006, 0.995158, 8.00034e-05, 5.8725e-36, 0.413148
 282, 67.0006, 0.994659, 8.65938e-05, 8.19134e-36, 0.427712
 288, 68.0006, 0.994119, 9.34127e-05, 1.14035e-35, 0.442764
 294, 69.0006, 0.993537, 0.000100403, 1.58447e-35, 0.458175
 300, 70.0006, 0.992914, 0.000107491, 2.19732e-35, 0.473779
 306, 71.0006, 0.992247, 0.000114589, 3.04145e-35, 0.489374
 312, 72.0005, 0.991539, 0.000121591, 4.20193e-35, 0.504721
 318, 73.0005, 0.990789, 0.000128371, 5.79436e-35, 0.519538
 324, 74.0005, 0.989999, 0.000134788, 7.97552e-35, 0.533507
 330, 75.0005, 0.989172, 0.000140686, 1.09576e-34, 0.546273
 336, 76.0005, 0.988312, 0.000145893, 1.50273e-34, 0.557452
 342, 77.0005, 0.987423, 0.000150228, 2.05714e-34, 0.566639
 348, 78.0005, 0.986511, 0.000153509, 2.81106e-34, 0.573423
 354, 79.0005, 0.985583, 0.000155554, 3.83448e-34, 0.577402
 360, 80.0005, 0.984647, 0.000156198, 5.22131e-34, 0.578202
 366, 81.0005, 0.983712, 0.000155296, 7.09733e-34, 0.575505
 372, 82.0005, 0.982787, 0.00015274, 9.63076e-34, 0.569073
 378, 83.0005, 0.981883, 0.00014847, 1.30461e-33, 0.558774
 384, 84.0005, 0.981009, 0.000142481, 1.76427e-33, 0.54461
 390, 85.0005, 0.980176, 0.00013484, 2.38187e-33, 0.526736
 396, 86.0005, 0.979394, 0.000125686, 3.21028e-33, 0.505472
 402, 87.0006, 0.978671, 0.000115232, 4.31966e-33, 0.481311
 408, 88.0006, 0.978013, 0.000103764, 5.80286e-33, 0.454901
 414, 89.0006, 0.977427, 9.16268e-05, 7.78264e-33, 0.427026
 420, 90.0006, 0.976915, 7.92048e-05, 1.0421e-32, 0.39856
 426, 91.0006, 0.976476, 6.69e-05, 1.39314e-32, 0.370411
 432, 92.0006, 0.976111, 5.51024e-05, 1.85948e-32, 0.343461
 438, 93.0007, 0.975814, 4.41606e-05, 2.478e-32, 0.318496
 444, 94.0007, 0.975579, 3.43553e-05, 3.29711e-32, 0.296147
 450, 95.0007, 0.975399, 2.58783e-05, 4.38016e-32, 0.276842
 456, 96.0007, 0.975266, 1.88216e-05, 5.81003e-32, 0.260783
 462, 97.0007, 0.97517, 1.31783e-05, 7.69492e-32, 0.247949
 468, 98.0007, 0.975105, 8.85397e-06, 1.01759e-31, 0.23812
 474, 99.0007, 0.975062, 5.68824e-06, 1.34365e-31, 0.230929
 480, 100.001, 0.975035, 3.48129e-06, 1.77155e-31, 0.225917
 486, 101.001, 0.975018, 2.02144e-06, 2.33228e-31, 0.222604
 492, 102.001, 0.975009, 1.10874e-06, 3.06598e-31, 0.220533
 498, 103.001, 0.975004, 5.71736e-07, 4.02464e-31, 0.219315
 504, 104.001, 0.975002, 2.75767e-07, 5.27543e-31, 0.218643
 510, 105.001, 0.975001, 1.23733e-07, 6.90506e-31, 0.218299
 516, 106.001, 0.975, 5.13397e-08, 9.02527e-31, 0.218135
 522, 107.001, 0.975, 1.95741e-08, 1.17799e-30, 0.218063
 528, 108.001, 0.975, 6.81075e-09, 1.53538e-30, 0.218034
 534, 109.001, 0.975, 2.1468e-09, 1.99842e-30, 0.218023
 540, 110.001, 0.975, 6.08177e-10, 2.59753e-30, 0.21802
 546, 111.001, 0.975, 1.53537e-10, 3.37164e-30, 0.218019
 552, 112.001, 0.975, 3.42265e-11, 4.37053e-30, 0.218018
 558, 113.001, 0.975, 6.67137e-12, 5.65775e-30, 0.218018
 564, 114.001, 0.975, 1.12509e-12, 7.31431e-30, 0.218018
 570, 115.001, 0.975, 1.62315e-13, 9.44341e-30, 0.218018
 576, 116.001, 0.975, 1.97906e-14, 1.21763e-29, 0.218018
 582, 117.001, 0.975, 2.01293e-15, 1.56795e-29, 0.218018
 588, 118.001, 0.975, 1.68423e-16, 2.01647e-29, 0.218018
 594, 119.001, 0.975, 1.14203e-17, 2.58995e-29, 0.218018
 600, 120.001, 0.975, 6.17577e-19, 3.3223e-29, 0.218018
 606, 121.001, 0.975, 2.6181e-20, 4.25636e-29, 0.218018
 612, 122.001, 0.975, 8.54228e-22, 5.44618e-29, 0.218018
 618, 123.001, 0.975, 2.10333e-23, 6.95995e-29, 0.218018
 624, 124.001, 0.975, 3.82682e-25, 8.88348e-29, 0.218018
 630, 125.001, 0.975, 5.03016e-27, 1.13247e-28, 0.218018
 636, 126.001, 0.975, 4.66345e-29, 1.44193e-28, 0.218018
 642, 127.001, 0.975, 3.017e-31, 1.83374e-28, 0.218018
 648, 128.001, 0.975, 7.08887e-33, 2.32921e-28, 0.218018
 654, 129.001, 0.975, 7.39111e-33, 2.95505e-28, 0.218018
 660, 130.001, 0.975, 9.36153e-33, 3.74461e-28, 0.218018
 666, 131.001, 0.975, 1.1849e-32, 4.73958e-28, 0.218018
 672, 132.001, 0.975, 1.49799e-32, 5.99195e-28, 0.218018
 678, 133.001, 0.975, 1.89163e-32, 7.56651e-28, 0.218018
 684, 134.001, 0.975, 2.38597e-32, 9.54387e-28, 0.218018
 690, 135.001, 0.975, 3.00607e-32, 1.20243e-27, 0.218018
 696, 136.001, 0.975, 3.78307e-32, 1.51323e-27, 0.218018
 702, 137.001, 0.975, 4.75556e-32, 1.90223e-27, 0.218018
 708, 138.001, 0.975, 5.9714e-32, 2.38856e-27, 0.218018
 714, 139.001, 0.975, 7.48982e-32, 2.99593e-27, 0.218018
 720, 140.001, 0.975, 9.38403e-32, 3.75361e-27, 0.218018
 726, 141.001, 0.975, 1.17445e-31, 4.6978e-27, 0.218018
 732, 142.001, 0.975, 1.46829e-31, 5.87315e-27, 0.218018
 738, 143.001, 0.975, 1.83367e-31, 7.33468e-27, 0.218018
 744, 144.001, 0.975, 2.28754e-31, 9.15015e-27, 0.218018
 750, 145.001, 0.975, 2.85073e-31, 1.14029e-26, 0.218018
 756, 146.001, 0.975, 3.54885e-31, 1.41954e-26, 0.218018
 762, 147.001, 0.975, 4.41333e-31, 1.76533e-26, 0.218018
 768, 148.001, 0.975, 5.48272e-31, 2.19309e-26, 0.218018
 774, 149.001, 0.975, 6.80423e-31, 2.72169e-26, 0.218018
 780, 150.001, 0.975, 8.43565e-31, 3.37426e-26, 0.218018
 786, 151.001, 0.975, 1.04476e-30, 4.17905e-26, 0.218018
 792, 152.001, 0.975, 1.29265e-30, 5.17059e-26, 0.218018
 798, 153.001, 0.975, 1.59775e-30, 6.391e-26, 0.218018
 804, 154.001, 0.975, 1.97291e-30, 7.89163e-26, 0.218018
 810, 155.001, 0.975, 2.43375e-30, 9.73501e-26, 0.218018
 816, 156.001, 0.975, 2.99931e-30, 1.19972e-25, 0.218018
 822, 157.001, 0.975, 3.6927e-30, 1.47708e-25, 0.218018
 828, 158.001, 0.975, 4.54201e-30, 1.8168e-25, 0.218018
 834, 159.001, 0.975, 5.58131e-30, 2.23252e-25, 0.218018
 840, 160.001, 0.975, 6.85189e-30, 2.74076e-25, 0.218018
 846, 161.001, 0.975, 8.40378e-30, 3.36151e-25, 0.218018
 852, 162.001, 0.975, 1.02975e-29, 4.119e-25, 0.218018
 858, 163.001, 0.975, 1.26062e-29, 5.04247e-25, 0.218018
 864, 164.001, 0.975, 1.54182e-29, 6.16728e-25, 0.218018
 870, 165.001, 0.975, 1.88402e-29, 7.53607e-25, 0.218018
 876, 166.001, 0.975, 2.30006e-29, 9.20025e-25, 0.218018
 882, 167.001, 0.975, 2.80543e-29, 1.12217e-24, 0.218018
 888, 168.001, 0.975, 3.41877e-29, 1.36751e-24, 0.218018
 894, 169.001, 0.975, 4.16247e-29, 1.66499e-24, 0.218018
 900, 170.001, 0.975, 5.06345e-29, 2.02538e-24, 0.218018
 906, 171.001, 0.975, 6.15402e-29, 2.46161e-24, 0.218018
 912, 172.001, 0.975, 7.47293e-29, 2.98917e-24, 0.218018
 918, 173.001, 0.975, 9.0666e-29, 3.62664e-24, 0.218018
 924, 174.001, 0.975, 1.09906e-28, 4.39625e-24, 0.218018
 930, 175.001, 0.975, 1.33115e-28, 5.32461e-24, 0.218018
 936, 176.001, 0.975, 1.61088e-28, 6.44351e-24, 0.218018
 942, 177.001, 0.975, 1.94773e-28, 7.79092e-24, 0.218018
 948, 178.001, 0.975, 2.35304e-28, 9.41218e-24, 0.218018
 954, 179.001, 0.975, 2.84032e-28, 1.13613e-23, 0.218018
 960, 180.001, 0.975, 3.42567e-28, 1.37027e-23, 0.218018
 966, 181.001, 0.975, 4.12823e-28, 1.65129e-23, 0.218018
 972, 182.001, 0.975, 4.9708e-28, 1.98832e-23, 0.218018
 978, 183.001, 0.975, 5.98048e-28, 2.39219e-23, 0.218018
 984, 184.001, 0.975, 7.18941e-28, 2.87577e-23, 0.218018
 990, 185.001, 0.975, 8.63579e-28, 3.45432e-23, 0.218018
 996, 186.001, 0.975, 1.03649e-27, 4.14595e-23, 0.218018
 1002, 187.001, 0.975, 1.24303e-27, 4.97212e-23, 0.218018
 1008, 188.001, 0.975, 1.48956e-27, 5.95822e-23, 0.218018
 1014, 189.001, 0.975, 1.78358e-27, 7.13431e-23, 0.218018
 1020, 190.001, 0.975, 2.13397e-27, 8.53589e-23, 0.218018
 1026, 191.001, 0.975, 2.55124e-27, 1.02049e-22, 0.218018
 1032, 192.001, 0.975, 3.04775e-27, 1.2191e-22, 0.218018
 1038, 193.001, 0.975, 3.63811e-27, 1.45524e-22, 0.218018
 1044, 194.001, 0.975, 4.33953e-27, 1.73581e-22, 0.218018
 1050, 195.001, 0.975, 5.1723e-27, 2.06892e-22, 0.218018
 1056, 196.001, 0.975, 6.16026e-27, 2.4641e-22, 0.218018
 1062, 197.001, 0.975, 7.33148e-27, 2.93259e-22, 0.218018
 1068, 198.001, 0.975, 8.71893e-27, 3.48757e-22, 0.218018
 1074, 199.001, 0.975, 1.03613e-26, 4.14454e-22, 0.218018
 1080, 200.001, 0.975, 1.23042e-26, 4.92166e-22, 0.218018
 1086, 201.001, 0.975, 1.46007e-26, 5.84027e-22, 0.218018
 1092, 202.001, 0.975, 1.73134e-26, 6.92534e-22, 0.218018
 1098, 203.001, 0.975, 2.05153e-26, 8.20613e-22, 0.218018
 1104, 204.001, 0.975, 2.42922e-26, 9.71689e-22, 0.218018
 1110, 205.001, 0.975, 2.87441e-26, 1.14976e-21, 0.218018
 1116, 206.001, 0.975, 3.3988e-26, 1.35952e-21, 0.218018
 1122, 207.001, 0.975, 4.01605e-26, 1.60642e-21, 0.218018
 1128, 208.001, 0.975, 4.7421e-26, 1.89684e-21, 0.218018
 1134, 209.001, 0.975, 5.59556e-26, 2.23822e-21, 0.218018
 1140, 210.001, 0.975, 6.5981e-26, 2.63924e-21, 0.218018
 1146, 211.001, 0.975, 7.77496e-26, 3.10998e-21, 0.218018
 1152, 212.001, 0.975, 9.15554e-26, 3.66222e-21, 0.218018
 1158, 213.001, 0.975, 1.0774e-25, 4.30961e-21, 0.218018
 1164, 214.001, 0.975, 1.26701e-25, 5.06805e-21, 0.218018
 1170, 215.001, 0.975, 1.489e-25, 5.95602e-21, 0.218018
 1176, 216.001, 0.975, 1.74874e-25, 6.99494e-21, 0.218018
 1182, 217.001, 0.975, 2.05243e-25, 8.20971e-21, 0.218018
 1188, 218.001, 0.975, 2.40729e-25, 9.62915e-21, 0.218018
 1194, 219.001, 0.975, 2.82167e-25, 1.12867e-20, 0.218018
 1200, 220.001, 0.975, 3.30526e-25, 1.3221e-20, 0.218018
 1206, 221.001, 0.975, 3.86925e-25, 1.5477e-20, 0.218018
 1212, 222.001, 0.975, 4.52659e-25, 1.81064e-20, 0.218018
 1218, 223.001, 0.975, 5.29226e-25, 2.1169e-20, 0.218018
 1224, 224.001, 0.975, 6.18355e-25, 2.47342e-20, 0.218018
 1230, 225.001, 0.975, 7.22043e-25, 2.88817e-20, 0.218018
 1236, 226.001, 0.975, 8.42595e-25, 3.37038e-20, 0.218018
 1242, 227.001, 0.975, 9.82667e-25, 3.93067e-20, 0.218018
 1248, 228.001, 0.975, 1.14532e-24, 4.58129e-20, 0.218018
 1254, 229.001, 0.975, 1.33408e-24, 5.33634e-20, 0.218018
 1260, 230.001, 0.975, 1.55302e-24, 6.21207e-20, 0.218018
 1266, 231.001, 0.975, 1.80679e-24, 7.22715e-20, 0.218018
 1272, 232.001, 0.975, 2.10077e-24, 8.40306e-20, 0.218018
 1278, 233.001, 0.975, 2.44112e-24, 9.76449e-20, 0.218018
 1284, 234.001, 0.975, 2.83494e-24, 1.13398e-19, 0.218018
 1290, 235.001, 0.975, 3.29036e-24, 1.31614e-19, 0.218018
 1296, 236.001, 0.975, 3.8167e-24, 1.52668e-19, 0.218018
 1302, 237.001, 0.975, 4.42467e-24, 1.76987e-19, 0.218018
 1308, 238.001, 0.975, 5.12651e-24, 2.0506e-19, 0.218018
 1314, 239.001, 0.975, 5.93627e-24, 2.37451e-19, 0.218018
 1320, 240.001, 0.975, 6.87e-24, 2.748e-19, 0.218018
 1326, 241.001, 0.975, 7.94608e-24, 3.17843e-19, 0.218018
 1332, 242.001, 0.975, 9.18553e-24, 3.67421e-19, 0.218018
 1338, 243.001, 0.975, 1.06123e-23, 4.24494e-19, 0.218018
 1344, 244.001, 0.975, 1.22539e-23, 4.90158e-19, 0.218018
 1350, 245.001, 0.975, 1.41416e-23, 5.65665e-19, 0.218018
 1356, 246.001, 0.975, 1.63111e-23, 6.52444e-19, 0.218018
 1362, 247.001, 0.975, 1.88031e-23, 7.52123e-19, 0.218018
 1368, 248.001, 0.975, 2.16639e-23, 8.66557e-19, 0.218018
 1374, 249.001, 0.975, 2.49465e-23, 9.97861e-19, 0.218018
 1380, 250.001, 0.975, 2.8711e-23, 1.14844e-18, 0.218018
 1386, 251.001, 0.975, 3.30259e-23, 1.32104e-18, 0.218018
 1392, 252.001, 0.975, 3.7969e-23, 1.51876e-18, 0.218018
 1398, 253.001, 0.975, 4.36288e-23, 1.74515e-18, 0.218018
 1404, 254.001, 0.975, 5.01058e-23, 2.00423e-18, 0.218018
 1410, 255.001, 0.975, 5.75142e-23, 2.30057e-18, 0.218018
 1416, 256.001, 0.975, 6.59836e-23, 2.63934e-18, 0.218018
 1422, 257.001, 0.975, 7.5661e-23, 3.02644e-18, 0.218018
 1428, 258.001, 0.975, 8.6713e-23, 3.46852e-18, 0.218018
 1434, 259.001, 0.975, 9.93285e-23, 3.97314e-18, 0.218018
 1440, 260.001, 0.975, 1.13721e-22, 4.54886e-18, 0.218018
 1446, 261.001, 0.975, 1.30134e-22, 5.20536e-18, 0.218018
 1452, 262.001, 0.975, 1.4884e-22, 5.9536e-18, 0.218018
 1458, 263.001, 0.975, 1.7015e-22, 6.806e-18, 0.218018
 1464, 264.001, 0.975, 1.94414e-22, 7.77655e-18, 0.218018
 1470, 265.001, 0.975, 2.22028e-22, 8.88112e-18, 0.218018
 1476, 266.001, 0.975, 2.53439e-22, 1.01376e-17, 0.218018
 1482, 267.001, 0.975, 2.89153e-22, 1.15661e-17, 0.218018
 1488, 268.001, 0.975, 3.29738e-22, 1.31895e-17, 0.218018
 1494, 269.001, 0.975, 3.75838e-22, 1.50335e-17, 0.218018
 1500, 270.001, 0.975, 4.28177e-22, 1.71271e-17, 0.218018
 1506, 271.001, 0.975, 4.87571e-22, 1.95028e-17, 0.218018
 1512, 272.001, 0.975, 5.54938e-22, 2.21975e-17, 0.218018
 1518, 273.001, 0.975, 6.31315e-22, 2.52526e-17, 0.218018
 1524, 274.001, 0.975, 7.17865e-22, 2.87146e-17, 0.218018
 1530, 275.001, 0.975, 8.15898e-22, 3.26359e-17, 0.218018
 1536, 276.001, 0.975, 9.26886e-22, 3.70754e-17, 0.218018
 1542, 277.001, 0.975, 1.05248e-21, 4.20994e-17, 0.218018
 1548, 278.001, 0.975, 1.19455e-21, 4.7782e-17, 0.218018
 1554, 279.001, 0.975, 1.35517e-21, 5.42069e-17, 0.218018
 1560, 280.001, 0.975, 1.53669e-21, 6.14676e-17, 0.218018
 1566, 281.001, 0.975, 1.74173e-21, 6.96692e-17, 0.218018
 1572, 282.001, 0.975, 1.97324e-21, 7.89295e-17, 0.218018
 1578, 283.001, 0.975, 2.23452e-21, 8.93806e-17, 0.218018
 1584, 284.001, 0.975, 2.52926e-21, 1.0117e-16, 0.218018
 1590, 285.001, 0.975, 2.86161e-21, 1.14464e-16, 0.218018
 1596, 286.001, 0.975, 3.2362e-21, 1.29448e-16, 0.218018
 1602, 287.001, 0.975, 3.65822e-21, 1.46329e-16, 0.218018
 1608, 288.001, 0.975, 4.13347e-21, 1.65339e-16, 0.218018
 1614, 289.001, 0.975, 4.66843e-21, 1.86737e-16, 0.218018
 1620, 290.001, 0.975, 5.27035e-21, 2.10814e-16, 0.218018
 1626, 291.001, 0.975, 5.94732e-21, 2.37893e-16, 0.218018
 1632, 292.001, 0.975, 6.70838e-21, 2.68335e-16, 0.218018
 1638, 293.001, 0.975, 7.5636e-21, 3.02544e-16, 0.218018
 1644, 294.001, 0.975, 8.52425e-21, 3.4097e-16, 0.218018
 1650, 295.001, 0.975, 9.60286e-21, 3.84115e-16, 0.218018
 1656, 296.001, 0.975, 1.08134e-20, 4.32537e-16, 0.218018
 1662, 297.001, 0.975, 1.21715e-20, 4.86862e-16, 0.218018
 1668, 298.001, 0.975, 1.36945e-20, 5.47782e-16, 0.218018
 1674, 299.001, 0.975, 1.54018e-20, 6.16071e-16, 0.218018
 1680, 300.001, 0.975, 1.73147e-20, 6.92589e-16, 0.218018
 1686, 301.001, 0.975, 1.94573e-20, 7.78294e-16, 0.218018
 1692, 302.001, 0.975, 2.18562e-20, 8.74249e-16, 0.218018
 1698, 303.001, 0.975, 2.4541e-20, 9.81639e-16, 0.218018
 1704, 304.001, 0.975, 2.75444e-20, 1.10178e-15, 0.218018
 1710, 305.001, 0.975, 3.09031e-20, 1.23612e-15, 0.218018
 1716, 306.001, 0.975, 3.46576e-20, 1.3863e-15, 0.218018
 1722, 307.001, 0.975, 3.88528e-20, 1.55411e-15, 0.218018
 1728, 308.001, 0.975, 4.35388e-20, 1.74155e-15, 0.218018
 1734, 309.001, 0.975, 4.87708e-20, 1.95083e-15, 0.218018
 1740, 310.001, 0.975, 5.46103e-20, 2.18441e-15, 0.218018
 1746, 311.001, 0.975, 6.11253e-20, 2.44501e-15, 0.218018
 1752, 312.001, 0.975, 6.83913e-20, 2.73565e-15, 0.218018
 1758, 313.001, 0.975, 7.64915e-20, 3.05966e-15, 0.218018
 1764, 314.001, 0.975, 8.55186e-20, 3.42074e-15, 0.218018
 1770, 315.001, 0.975, 9.55747e-20, 3.82299e-15, 0.218018
 1776, 316.001, 0.975, 1.06773e-19, 4.27092e-15, 0.218018
 1782, 317.001, 0.975, 1.19239e-19, 4.76955e-15, 0.218018
 1788, 318.001, 0.975, 1.3311e-19, 5.32439e-15, 0.218018
 1794, 319.001, 0.975, 1.4854e-19, 5.94158e-15, 0.218018
 1800, 320.001, 0.975, 1.65696e-19, 6.62786e-15, 0.218018
 1806, 321.001, 0.975, 1.84767e-19, 7.39069e-15, 0.218018
 1812, 322.001, 0.975, 2.05957e-19, 8.23829e-15, 0.218018
 1818, 323.001, 0.975, 2.29494e-19, 9.17976e-15, 0.218018
 1824, 324.001, 0.975, 2.55628e-19, 1.02251e-14, 0.218018
 1830, 325.001, 0.975, 2.84635e-19, 1.13854e-14, 0.218018
 1836, 326.001, 0.975, 3.1682e-19, 1.26728e-14, 0.218018
 1842, 327.001, 0.975, 3.52519e-19, 1.41007e-14, 0.218018
 1848, 328.001, 0.975, 3.921e-19, 1.5684e-14, 0.218018
 1854, 329.001, 0.975, 4.35972e-19, 1.74389e-14, 0.218018
 1860, 330.001, 0.975, 4.84582e-19, 1.93833e-14, 0.218018
 1866, 331.001, 0.975, 5.38424e-19, 2.1537e-14, 0.218018
 1872, 332.001, 0.975, 5.9804e-19, 2.39216e-14, 0.218018
 1878, 333.001, 0.975, 6.64026e-19, 2.65611e-14, 0.218018
 1884, 334.001, 0.975, 7.3704e-19, 2.94816e-14, 0.218018
 1890, 335.001, 0.975, 8.178e-19, 3.2712e-14, 0.218018
 1896, 336.001, 0.975, 9.07101e-19, 3.6284e-14, 0.218018
 1902, 337.001, 0.975, 1.00581e-18, 4.02324e-14, 0.218018
 1908, 338.001, 0.975, 1.11488e-18, 4.45954e-14, 0.218018
 1914, 339.001, 0.975, 1.23537e-18, 4.94149e-14, 0.218018
 1920, 340.001, 0.975, 1.36842e-18, 5.47369e-14, 0.218018
 1926, 341.001, 0.975, 1.5153e-18, 6.06119e-14, 0.218018
 1932, 342.001, 0.975, 1.67738e-18, 6.70952e-14, 0.218018
 1938, 343.001, 0.975, 1.85619e-18, 7.42475e-14, 0.218018
 1944, 344.001, 0.975, 2.05338e-18, 8.21353e-14, 0.218018
 1950, 345.001, 0.975, 2.27079e-18, 9.08314e-14, 0.218018
 1956, 346.001, 0.975, 2.51039e-18, 1.00416e-13, 0.218018
 1962, 347.001, 0.975, 2.77438e-18, 1.10975e-13, 0.218018
 1968, 348.001, 0.975, 3.06514e-18, 1.22606e-13, 0.218018
 1974, 349.001, 0.975, 3.38529e-18, 1.35411e-13, 0.218018
 1980, 350.001, 0.975, 3.73768e-18, 1.49507e-13, 0.218018
 1986, 351.001, 0.975, 4.12545e-18, 1.65018e-13, 0.218018
 1992, 352.001, 0.975, 4.55201e-18, 1.82081e-13, 0.218018
 1998, 353.001, 0.975, 5.0211e-18, 2.00844e-13, 0.218018
 2004, 354.001, 0.975, 5.5368e-18, 2.21472e-13, 0.218018
 2010, 355.001, 0.975, 6.10356e-18, 2.44142e-13, 0.218018
 2016, 356.001, 0.975, 6.72625e-18, 2.6905e-13, 0.218018
 2022, 357.001, 0.975, 7.41019e-18, 2.96407e-13, 0.218018
 2028, 358.001, 0.975, 8.16116e-18, 3.26446e-13, 0.218018
 2034, 359.001, 0.975, 8.9855e-18, 3.5942e-13, 0.218018
 2040, 360.001, 0.975, 9.89009e-18, 3.95604e-13, 0.218018
 2046, 361.001, 0.975, 1.08825e-17, 4.35298e-13, 0.218018
 2052, 362.001, 0.975, 1.19708e-17, 4.78832e-13, 0.218018
 2058, 363.001, 0.975, 1.3164e-17, 5.26561e-13, 0.218018
 2064, 364.001, 0.975, 1.44719e-17, 5.78875e-13, 0.218018
 2070, 365.001, 0.975, 1.5905e-17, 6.36198e-13, 0.218018
 2076, 366.001, 0.975, 1.74748e-17, 6.98991e-13, 0.218018
 2082, 367.001, 0.975, 1.91939e-17, 7.67755e-13, 0.218018
 2088, 368.001, 0.975, 2.10759e-17, 8.43038e-13, 0.218018
 2094, 369.001, 0.975, 2.31358e-17, 9.25432e-13, 0.218018
 2100, 370.001, 0.975, 2.53896e-17, 1.01559e-12, 0.218018
 2106, 371.001, 0.975, 2.7855e-17, 1.1142e-12, 0.218018
 2112, 372.001, 0.975, 3.05509e-17, 1.22204e-12, 0.218018
 2118, 373.001, 0.975, 3.34982e-17, 1.33993e-12, 0.218018
 2124, 374.001, 0.975, 3.67194e-17, 1.46878e-12, 0.218018
 2130, 375.001, 0.975, 4.02389e-17, 1.60956e-12, 0.218018
 2136, 376.001, 0.975, 4.40834e-17, 1.76334e-12, 0.218018
 2142, 377.001, 0.975, 4.82816e-17, 1.93126e-12, 0.218018
 2148, 378.001, 0.975, 5.28648e-17, 2.11459e-12, 0.218018
 2154, 379.001, 0.975, 5.7867e-17, 2.31468e-12, 0.218018
 2160, 380.001, 0.975, 6.33249e-17, 2.533e-12, 0.218018
 2166, 381.001, 0.975, 6.92786e-17, 2.77114e-12, 0.218018
 2172, 382.001, 0.975, 7.57712e-17, 3.03085e-12, 0.218018
 2178, 383.001, 0.975, 8.28497e-17, 3.31399e-12, 0.218018
 2184, 384.001, 0.975, 9.05649e-17, 3.62259e-12, 0.218018
 2190, 385.001, 0.975, 9.89717e-17, 3.95887e-12, 0.218018
 2196, 386.001, 0.975, 1.0813e-16, 4.32519e-12, 0.218018
 2202, 387.001, 0.975, 1.18103e-16, 4.72414e-12, 0.218018
 2208, 388.001, 0.975, 1.28963e-16, 5.15851e-12, 0.218018
 2214, 389.001, 0.975, 1.40783e-16, 5.63133e-12, 0.218018
 2220, 390.001, 0.975, 1.53646e-16, 6.14586e-12, 0.218018
 2226, 391.001, 0.975, 1.67641e-16, 6.70563e-12, 0.218018
 2232, 392.001, 0.975, 1.82862e-16, 7.31447e-12, 0.218018
 2238, 393.001, 0.975, 1.99413e-16, 7.97651e-12, 0.218018
 2244, 394.001, 0.975, 2.17405e-16, 8.69621e-12, 0.218018
 2250, 395.001, 0.975, 2.3696e-16, 9.4784e-12, 0.218018
 2256, 396.001, 0.975, 2.58207e-16, 1.03283e-11, 0.218018
 2262, 397.001, 0.975, 2.81287e-16, 1.12515e-11, 0.218018
 2268, 398.001, 0.975, 3.06352e-16, 1.22541e-11, 0.218018
 2274, 399.001, 0.975, 3.33566e-16, 1.33426e-11, 0.218018
 2280, 400.001, 0.975, 3.63105e-16, 1.45242e-11, 0.218018
 2286, 401.001, 0.975, 3.95161e-16, 1.58065e-11, 0.218018
 2292, 402.001, 0.975, 4.29939e-16, 1.71976e-11, 0.218018
 2298, 403.001, 0.975, 4.67661e-16, 1.87065e-11, 0.218018
 2304, 404.001, 0.975, 5.08567e-16, 2.03427e-11, 0.218018
 2310, 405.001, 0.975, 5.52913e-16, 2.21165e-11, 0.218018
 2316, 406.001, 0.975, 6.00979e-16, 2.40392e-11, 0.218018
 2322, 407.001, 0.975, 6.53063e-16, 2.61225e-11, 0.218018
 2328, 408.001, 0.975, 7.09488e-16, 2.83795e-11, 0.218018
 2334, 409.001, 0.975, 7.706e-16, 3.0824e-11, 0.218018
 2340, 410.001, 0.975, 8.36774e-16, 3.3471e-11, 0.218018
 2346, 411.001, 0.975, 9.08412e-16, 3.63365e-11, 0.218018
 2352, 412.001, 0.975, 9.85946e-16, 3.94379e-11, 0.218018
 2358, 413.001, 0.975, 1.06984e-15, 4.27937e-11, 0.218018
 2364, 414.001, 0.975, 1.1606e-15, 4.64241e-11, 0.218018
 2370, 415.001, 0.975, 1.25876e-15, 5.03506e-11, 0.218018
 2376, 416.001, 0.975, 1.36491e-15, 5.45962e-11, 0.218018
 2382, 417.001, 0.975, 1.47965e-15, 5.9186e-11, 0.218018
 2388, 418.001, 0.975, 1.60367e-15, 6.41467e-11, 0.218018
 2394, 419.001, 0.975, 1.73767e-15, 6.9507e-11, 0.218018
 2400, 420.001, 0.975, 1.88244e-15, 7.52978e-11, 0.218018
 2406, 421.001, 0.975, 2.0388e-15, 8.15522e-11, 0.218018
 2412, 422.001, 0.975, 2.20764e-15, 8.83058e-11, 0.218018
 2418, 423.001, 0.975, 2.38992e-15, 9.55968e-11, 0.218018
 2424, 424.001, 0.975, 2.58666e-15, 1.03466e-10, 0.218018
 2430, 425.001, 0.975, 2.79896e-15, 1.11958e-10, 0.218018
 2436, 426.001, 0.975, 3.028e-15, 1.2112e-10, 0.218018
 2442, 427.001, 0.975, 3.27504e-15, 1.31002e-10, 0.218018
 2448, 428.001, 0.975, 3.54145e-15, 1.41658e-10, 0.218018
 2454, 429.001, 0.975, 3.82868e-15, 1.53147e-10, 0.218018
 2460, 430.001, 0.975, 4.13829e-15, 1.65531e-10, 0.218018
 2466, 431.001, 0.975, 4.47194e-15, 1.78878e-10, 0.218018
 2472, 432.001, 0.975, 4.83143e-15, 1.93257e-10, 0.218018
 2478, 433.001, 0.975, 5.21868e-15, 2.08747e-10, 0.218018
 2484, 434.001, 0.975, 5.63574e-15, 2.25429e-10, 0.218018
 2490, 435.001, 0.975, 6.0848e-15, 2.43392e-10, 0.218018
 2496, 436.001, 0.975, 6.56823e-15, 2.62729e-10, 0.218018
 2502, 437.001, 0.975, 7.08854e-15, 2.83542e-10, 0.218018
 2508, 438.001, 0.975, 7.64843e-15, 3.05937e-10, 0.218018
 2514, 439.001, 0.975, 8.25077e-15, 3.30031e-10, 0.218018
 2520, 440.001, 0.975, 8.89866e-15, 3.55947e-10, 0.218018
 2526, 441.001, 0.975, 9.5954e-15, 3.83816e-10, 0.218018
 2532, 442.001, 0.975, 1.03445e-14, 4.1378e-10, 0.218018
 2538, 443.001, 0.975, 1.11498e-14, 4.4599e-10, 0.218018
 2544, 444.001, 0.975, 1.20152e-14, 4.80607e-10, 0.218018
 2550, 445.001, 0.975, 1.29451e-14, 5.17803e-10, 0.218018
 2556, 446.001, 0.975, 1.3944e-14, 5.57762e-10, 0.218018
 2562, 447.001, 0.975, 1.5017e-14, 6.00681e-10, 0.218018
 2568, 448.001, 0.975, 1.61692e-14, 6.46769e-10, 0.218018
 2574, 449.001, 0.975, 1.74063e-14, 6.9625e-10, 0.218018
 2580, 450.001, 0.975, 1.87341e-14, 7.49365e-10, 0.218018
 2586, 451.001, 0.975, 2.01592e-14, 8.06367e-10, 0.218018
 2592, 452.001, 0.975, 2.16883e-14, 8.67531e-10, 0.218018
 2598, 453.001, 0.975, 2.33286e-14, 9.33145e-10, 0.218018
 2604, 454.001, 0.975, 2.5088e-14, 1.00352e-09, 0.218018
 2610, 455.001, 0.975, 2.69747e-14, 1.07899e-09, 0.218018
 2616, 456.001, 0.975, 2.89976e-14, 1.1599e-09, 0.218018
 2622, 457.001, 0.975, 3.11659e-14, 1.24664e-09, 0.218018
 2628, 458.001, 0.975, 3.34898e-14, 1.33959e-09, 0.218018
 2634, 459.001, 0.975, 3.59799e-14, 1.4392e-09, 0.218018
 2640, 460.001, 0.975, 3.86475e-14, 1.5459e-09, 0.218018
 2646, 461.001, 0.975, 4.15049e-14, 1.6602e-09, 0.218018
 2652, 462.001, 0.975, 4.45649e-14, 1.7826e-09, 0.218018
 2658, 463.001, 0.975, 4.78412e-14, 1.91365e-09, 0.218018
 2664, 464.001, 0.975, 5.13486e-14, 2.05394e-09, 0.218018
 2670, 465.001, 0.975, 5.51024e-14, 2.2041e-09, 0.218018
 2676, 466.001, 0.975, 5.91195e-14, 2.36478e-09, 0.218018
 2682, 467.001, 0.975, 6.34173e-14, 2.53669e-09, 0.218018
 2688, 468.001, 0.975, 6.80147e-14, 2.72059e-09, 0.218018
 2694, 469.001, 0.975, 7.29316e-14, 2.91726e-09, 0.218018
 2700, 470.001, 0.975, 7.81892e-14, 3.12757e-09, 0.218018
 2706, 471.001, 0.975, 8.38102e-14, 3.35241e-09, 0.218018
 2712, 472.001, 0.975, 8.98186e-14, 3.59274e-09, 0.218018
 2718, 473.001, 0.975, 9.62398e-14, 3.84959e-09, 0.218018
 2724, 474.001, 0.975, 1.03101e-13, 4.12404e-09, 0.218018
 2730, 475.001, 0.975, 1.10431e-13, 4.41725e-09, 0.218018
 2736, 476.001, 0.975, 1.18261e-13, 4.73043e-09, 0.218018
 2742, 477.001, 0.975, 1.26622e-13, 5.06489e-09, 0.218018
 2748, 478.001, 0.975, 1.3555e-13, 5.42201e-09, 0.218018
 2754, 479.001, 0.975, 1.45081e-13, 5.80326e-09, 0.218018
 2760, 480.001, 0.975, 1.55255e-13, 6.2102e-09, 0.218018
 2766, 481.001, 0.975, 1.66112e-13, 6.64448e-09, 0.218018
 2772, 482.001, 0.975, 1.77696e-13, 7.10785e-09, 0.218018
 2778, 483.001, 0.975, 1.90055e-13, 7.60219e-09, 0.218018
 2784, 484.001, 0.975, 2.03236e-13, 8.12946e-09, 0.218018
 2790, 485.001, 0.975, 2.17294e-13, 8.69176e-09, 0.218018
 2796, 486.001, 0.975, 2.32283e-13, 9.29132e-09, 0.218018
 2802, 487.001, 0.975, 2.48262e-13, 9.93049e-09, 0.218018
 2808, 488.001, 0.975, 2.65295e-13, 1.06118e-08, 0.218018
 2814, 489.001, 0.975, 2.83446e-13, 1.13378e-08, 0.218018
 2820, 490.001, 0.975, 3.02787e-13, 1.21115e-08, 0.218018
 2826, 491.001, 0.975, 3.23391e-13, 1.29357e-08, 0.218018
 2832, 492.001, 0.975, 3.45339e-13, 1.38135e-08, 0.218018
 2838, 493.001, 0.975, 3.68712e-13, 1.47485e-08, 0.218018
 2844, 494.001, 0.975, 3.93601e-13, 1.5744e-08, 0.218018
 2850, 495.001, 0.975, 4.20097e-13, 1.68039e-08, 0.218018
 2856, 496.001, 0.975, 4.48302e-13, 1.79321e-08, 0.218018
 2862, 497.001, 0.975, 4.7832e-13, 1.91328e-08, 0.218018
 2868, 498.001, 0.975, 5.10262e-13, 2.04105e-08, 0.218018
 2874, 499.001, 0.975, 5.44245e-13, 2.17698e-08, 0.218018
 2880, 500.001, 0.975, 5.80395e-13, 2.32158e-08, 0.218018
 2886, 501.001, 0.975, 6.18844e-13, 2.47538e-08, 0.218018
 2892, 502.001, 0.975, 6.5973e-13, 2.63892e-08, 0.218018
 2898, 503.001, 0.975, 7.03202e-13, 2.81281e-08, 0.218018
 2904, 504.001, 0.975, 7.49415e-13, 2.99766e-08, 0.218018
 2910, 505.001, 0.975, 7.98535e-13, 3.19414e-08, 0.218018
 2916, 506.001, 0.975, 8.50735e-13, 3.40294e-08, 0.218018
 2922, 507.001, 0.975, 9.06201e-13, 3.6248e-08, 0.218018
 2928, 508.001, 0.975, 9.65127e-13, 3.86051e-08, 0.218018
 2934, 509.001, 0.975, 1.02772e-12, 4.11088e-08, 0.218018
 2940, 510.001, 0.975, 1.09419e-12, 4.37678e-08, 0.218018
 2946, 511.001, 0.975, 1.16478e-12, 4.65913e-08, 0.218018
 2952, 512.001, 0.975, 1.23973e-12, 4.95892e-08, 0.218018
 2958, 513.001, 0.975, 1.31929e-12, 5.27715e-08, 0.218018
 2964, 514.001, 0.975, 1.40373e-12, 5.61492e-08, 0.218018
 2970, 515.001, 0.975, 1.49334e-12, 5.97337e-08, 0.218018
 2976, 516.001, 0.975, 1.58843e-12, 6.3537e-08, 0.218018
 2982, 517.001, 0.975, 1.6893e-12, 6.7572e-08, 0.218018
 2988, 518.001, 0.975, 1.7963e-12, 7.1852e-08, 0.218018
 2994, 519.001, 0.975, 1.90978e-12, 7.63912e-08, 0.218018
 3000, 520.001, 0.975, 2.03012e-12, 8.12047e-08, 0.218018
 3006, 521.001, 0.975, 2.15771e-12, 8.63082e-08, 0.218018
 3012, 522.001, 0.975, 2.29296e-12, 9.17184e-08, 0.218018
 3018, 523.001, 0.975, 2.43632e-12, 9.74528e-08, 0.218018
 3024, 524.001, 0.975, 2.58825e-12, 1.0353e-07, 0.218018
 3030, 525.001, 0.975, 2.74924e-12, 1.0997e-07, 0.218018
 3036, 526.001, 0.975, 2.9198e-12, 1.16792e-07, 0.218018
 3042, 527.001, 0.975, 3.10047e-12, 1.24019e-07, 0.218018
 3048, 528.001, 0.975, 3.29183e-12, 1.31673e-07, 0.218018
 3054, 529.001, 0.975, 3.49448e-12, 1.39779e-07, 0.218018
 3060, 530.001, 0.975, 3.70906e-12, 1.48362e-07, 0.218018
 3066, 531.001, 0.975, 3.93623e-12, 1.57449e-07, 0.218018
 3072, 532.001, 0.975, 4.17669e-12, 1.67068e-07, 0.218018
 3078, 533.001, 0.975, 4.43119e-12, 1.77248e-07, 0.218018
 3084, 534.001, 0.975, 4.70051e-12, 1.8802e-07, 0.218018
 3090, 535.001, 0.975, 4.98547e-12, 1.99419e-07, 0.218018
 3096, 536.001, 0.975, 5.28693e-12, 2.11477e-07, 0.218018
 3102, 537.001, 0.975, 5.60582e-12, 2.24233e-07, 0.218018
 3108, 538.001, 0.975, 5.94307e-12, 2.37723e-07, 0.218018
 3114, 539.001, 0.975, 6.29971e-12, 2.51989e-07, 0.218018
 3120, 540.001, 0.975, 6.6768e-12, 2.67072e-07, 0.218018
 3126, 541.001, 0.975, 7.07545e-12, 2.83018e-07, 0.218018
 3132, 542.001, 0.975, 7.49683e-12, 2.99873e-07, 0.218018
 3138, 543.001, 0.975, 7.94218e-12, 3.17687e-07, 0.218018
 3144, 544.001, 0.975, 8.4128e-12, 3.36512e-07, 0.218018
 3150, 545.001, 0.975, 8.91005e-12, 3.56402e-07, 0.218018
 3156, 546.001, 0.975, 9.43538e-12, 3.77415e-07, 0.218018
 3162, 547.001, 0.975, 9.99027e-12, 3.99611e-07, 0.218018
 3168, 548.001, 0.975, 1.05763e-11, 4.23053e-07, 0.218018
 3174, 549.001, 0.975, 1.11952e-11, 4.47809e-07, 0.218018
 3180, 550.001, 0.975, 1.18487e-11, 4.73947e-07, 0.218018
 3186, 551.001, 0.975, 1.25386e-11, 5.01542e-07, 0.218018
 3192, 552.001, 0.975, 1.32668e-11, 5.30672e-07, 0.218018
 3198, 553.001, 0.975, 1.40354e-11, 5.61416e-07, 0.218018
 3204, 554.001, 0.975, 1.48465e-11, 5.9386e-07, 0.218018
 3210, 555.001, 0.975, 1.57024e-11, 6.28094e-07, 0.218018
 3216, 556.001, 0.975, 1.66053e-11, 6.64212e-07, 0.218018
 3222, 557.001, 0.975, 1.75578e-11, 7.02312e-07, 0.218018
 3228, 558.001, 0.975, 1.85625e-11, 7.42498e-07, 0.218018
 3234, 559.001, 0.975, 1.9622e-11, 7.84879e-07, 0.218018
 3240, 560.001, 0.975, 2.07392e-11, 8.29568e-07, 0.218018
 3246, 561.001, 0.975, 2.19171e-11, 8.76685e-07, 0.218018
 3252, 562.001, 0.975, 2.31589e-11, 9.26355e-07, 0.218018
 3258, 563.001, 0.975, 2.44678e-11, 9.78711e-07, 0.218018
 3264, 564.001, 0.975, 2.58472e-11, 1.03389e-06, 0.218018
 3270, 565.001, 0.975, 2.73009e-11, 1.09204e-06, 0.218018
 3276, 566.001, 0.975, 2.88326e-11, 1.1533e-06, 0.218018
 3282, 567.001, 0.975, 3.04462e-11, 1.21785e-06, 0.218018
 3288, 568.001, 0.975, 3.2146e-11, 1.28584e-06, 0.218018
 3294, 569.001, 0.975, 3.39363e-11, 1.35745e-06, 0.218018
 3300, 570.001, 0.975, 3.58217e-11, 1.43287e-06, 0.218018
 3306, 571.001, 0.975, 3.7807e-11, 1.51228e-06, 0.218018
 3312, 572.001, 0.975, 3.98973e-11, 1.59589e-06, 0.218018
 3318, 573.001, 0.975, 4.20978e-11, 1.68391e-06, 0.218018
 3324, 574.001, 0.975, 4.4414e-11, 1.77656e-06, 0.218018
 3330, 575.001, 0.975, 4.68517e-11, 1.87407e-06, 0.218018
 3336, 576.001, 0.975, 4.9417e-11, 1.97668e-06, 0.218018
 3342, 577.001, 0.975, 5.21162e-11, 2.08465e-06, 0.218018
 3348, 578.001, 0.975, 5.4956e-11, 2.19824e-06, 0.218018
 3354, 579.001, 0.975, 5.79433e-11, 2.31773e-06, 0.218018
 3360, 580.001, 0.975, 6.10854e-11, 2.44341e-06, 0.218018
 3366, 581.001, 0.975, 6.43899e-11, 2.5756e-06, 0.218018
 3372, 582.001, 0.975, 6.78648e-11, 2.71459e-06, 0.218018
 3378, 583.001, 0.975, 7.15185e-11, 2.86074e-06, 0.218018
 3384, 584.001, 0.975, 7.53597e-11, 3.01439e-06, 0.218018
 3390, 585.001, 0.975, 7.93975e-11, 3.1759e-06, 0.218018
 3396, 586.001, 0.975, 8.36415e-11, 3.34566e-06, 0.218018
 3402, 587.001, 0.975, 8.81016e-11, 3.52406e-06, 0.218018
 3408, 588.001, 0.975, 9.27884e-11, 3.71154e-06, 0.218018
 3414, 589.001, 0.975, 9.77128e-11, 3.90851e-06, 0.218018
 3420, 590.001, 0.975, 1.02886e-10, 4.11545e-06, 0.218018
 3426, 591.001, 0.975, 1.08321e-10, 4.33282e-06, 0.218018
 3432, 592.001, 0.975, 1.14028e-10, 4.56113e-06, 0.218018
 3438, 593.001, 0.975, 1.20023e-10, 4.80091e-06, 0.218018
 3444, 594.001, 0.975, 1.26317e-10, 5.05269e-06, 0.218018
 3450, 595.001, 0.975, 1.32926e-10, 5.31705e-06, 0.218018
 3456, 596.001, 0.975, 1.39865e-10, 5.59459e-06, 0.218018
 3462, 597.001, 0.975, 1.47148e-10, 5.88592e-06, 0.218018
 3468, 598.001, 0.975, 1.54793e-10, 6.1917e-06, 0.218018
 3474, 599.001, 0.975, 1.62815e-10, 6.51262e-06, 0.218018
 3480, 600.001, 0.975, 1.71234e-10, 6.84937e-06, 0.218018
 3486, 601.001, 0.975, 1.80068e-10, 7.2027e-06, 0.218018
 3492, 602.001, 0.975, 1.89335e-10, 7.57339e-06, 0.218018
 3498, 603.001, 0.975, 1.99056e-10, 7.96225e-06, 0.218018
 3504, 604.001, 0.975, 2.09253e-10, 8.37012e-06, 0.218018
 3510, 605.001, 0.975, 2.19947e-10, 8.79788e-06, 0.218018
 3516, 606.001, 0.975, 2.31161e-10, 9.24645e-06, 0.218018
 3522, 607.001, 0.975, 2.4292e-10, 9.71679e-06, 0.218019
 3528, 608.001, 0.975, 2.55248e-10, 1.02099e-05, 0.218018
 3534, 609.001, 0.975, 2.68171e-10, 1.07269e-05, 0.218018
 3540, 610.001, 0.975, 2.81718e-10, 1.12687e-05, 0.218018
 3546, 611.001, 0.975, 2.95915e-10, 1.18366e-05, 0.218019
 3552, 612.001, 0.975, 3.10794e-10, 1.24318e-05, 0.218018
 3558, 613.001, 0.975, 3.26384e-10, 1.30554e-05, 0.218018
 3564, 614.001, 0.975, 3.42719e-10, 1.37088e-05, 0.218018
 3570, 615.001, 0.975, 3.59832e-10, 1.43933e-05, 0.218018
 3576, 616.001, 0.975, 3.77758e-10, 1.51103e-05, 0.218018
 3582, 617.001, 0.975, 3.96533e-10, 1.58613e-05, 0.218018
 3588, 618.001, 0.975, 4.16197e-10, 1.66479e-05, 0.218019
 3594, 619.001, 0.975, 4.36788e-10, 1.74715e-05, 0.218019
 3600, 620.001, 0.975, 4.58348e-10, 1.83339e-05, 0.218019
 3606, 621.001, 0.975, 4.80921e-10, 1.92368e-05, 0.218019
 3612, 622.001, 0.975, 5.04551e-10, 2.0182e-05, 0.218019
 3618, 623.001, 0.975, 5.29286e-10, 2.11714e-05, 0.218019
 3624, 624.001, 0.975, 5.55173e-10, 2.22069e-05, 0.218019
 3630, 625.001, 0.975, 5.82266e-10, 2.32906e-05, 0.218019
 3636, 626.001, 0.975, 6.10615e-10, 2.44246e-05, 0.218019
 3642, 627.001, 0.975, 6.40277e-10, 2.56111e-05, 0.218019
 3648, 628.001, 0.975, 6.7131e-10, 2.68524e-05, 0.218018
 3654, 629.001, 0.975, 7.03772e-10, 2.81509e-05, 0.218019
 3660, 630.001, 0.975, 7.37728e-10, 2.95091e-05, 0.218018
 3666, 631.001, 0.975, 7.73241e-10, 3.09296e-05, 0.218019
 3672, 632.001, 0.975, 8.10379e-10, 3.24152e-05, 0.218019
 3678, 633.001, 0.975, 8.49213e-10, 3.39685e-05, 0.218019
 3684, 634.001, 0.975, 8.89816e-10, 3.55926e-05, 0.218019
 3690, 635.001, 0.975, 9.32265e-10, 3.72906e-05, 0.218019
 3696, 636.001, 0.975, 9.76638e-10, 3.90655e-05, 0.218019
 3702, 637.001, 0.975, 1.02302e-09, 4.09208e-05, 0.218019
 3708, 638.001, 0.975, 1.07149e-09, 4.28598e-05, 0.218019
 3714, 639.001, 0.975, 1.12215e-09, 4.48861e-05, 0.218019
 3720, 640.001, 0.975, 1.17509e-09, 4.70034e-05, 0.218019
 3726, 641.001, 0.975, 1.23039e-09, 4.92157e-05, 0.218019
 3732, 642.001, 0.975, 1.28817e-09, 5.15269e-05, 0.218019
 3738, 643.001, 0.975, 1.34853e-09, 5.39412e-05, 0.218019
 3744, 644.001, 0.975, 1.41158e-09, 5.64631e-05, 0.218019
 3750, 645.001, 0.975, 1.47742e-09, 5.90969e-05, 0.218019
 3756, 646.001, 0.975, 1.54619e-09, 6.18475e-05, 0.218019
 3762, 647.001, 0.975, 1.61799e-09, 6.47197e-05, 0.218019
 3768, 648.001, 0.975, 1.69296e-09, 6.77185e-05, 0.218019
 3774, 649.001, 0.975, 1.77124e-09, 7.08494e-05, 0.218019
 3780, 650.001, 0.975, 1.85295e-09, 7.41178e-05, 0.218019
 3786, 651.001, 0.975, 1.93824e-09, 7.75294e-05, 0.218019
 3792, 652.001, 0.975, 2.02725e-09, 8.10902e-05, 0.218019
 3798, 653.001, 0.975, 2.12016e-09, 8.48062e-05, 0.218019
 3804, 654.001, 0.975, 2.2171e-09, 8.8684e-05, 0.218019
 3810, 655.001, 0.975, 2.31825e-09, 9.27302e-05, 0.218019
 3816, 656.001, 0.975, 2.42379e-09, 9.69516e-05, 0.218019
 3822, 657.001, 0.975, 2.53389e-09, 0.000101356, 0.218019
 3828, 658.001, 0.975, 2.64873e-09, 0.000105949, 0.218019
 3834, 659.001, 0.975, 2.76852e-09, 0.000110741, 0.218019
 3840, 660.001, 0.975, 2.89345e-09, 0.000115738, 0.218019
 3846, 661.001, 0.975, 3.02374e-09, 0.00012095, 0.218019
 3852, 662.001, 0.975, 3.15959e-09, 0.000126384, 0.218019
 3858, 663.001, 0.975, 3.30124e-09, 0.000132049, 0.218019
 3864, 664.001, 0.975, 3.44891e-09, 0.000137956, 0.218019
 3870, 665.001, 0.975, 3.60285e-09, 0.000144114, 0.218019
 3876, 666.001, 0.974999, 3.76331e-09, 0.000150533, 0.218019
 3882, 667.001, 0.974999, 3.93056e-09, 0.000157222, 0.218019
 3888, 668.001, 0.974999, 4.10486e-09, 0.000164194, 0.218019
 3894, 669.001, 0.974999, 4.28649e-09, 0.00017146, 0.218019
 3900, 670.001, 0.974999, 4.47575e-09, 0.00017903, 0.218019
 3906, 671.001, 0.974999, 4.67294e-09, 0.000186918, 0.218019
 3912, 672.001, 0.974999, 4.87837e-09, 0.000195135, 0.21802
 3918, 673.001, 0.974999, 5.09237e-09, 0.000203695, 0.21802
 3924, 674.001, 0.974999, 5.31528e-09, 0.000212611, 0.21802
 3930, 675.001, 0.974999, 5.54744e-09, 0.000221897, 0.21802
 3936, 676.001, 0.974999, 5.78922e-09, 0.000231569, 0.21802
 3942, 677.001, 0.974999, 6.04099e-09, 0.00024164, 0.21802
 3948, 678.001, 0.974999, 6.30315e-09, 0.000252126, 0.21802
 3954, 679.001, 0.974999, 6.5761e-09, 0.000263044, 0.21802
 3960, 680.001, 0.974999, 6.86026e-09, 0.00027441, 0.21802
 3966, 681.001, 0.974999, 7.15606e-09, 0.000286242, 0.21802
 3972, 682.001, 0.974999, 7.46396e-09, 0.000298558, 0.21802
 3978, 683.001, 0.974999, 7.78442e-09, 0.000311377, 0.21802
 3984, 684.001, 0.974999, 8.11792e-09, 0.000324717, 0.21802
 3990, 685.001, 0.974999, 8.46497e-09, 0.000338599, 0.21802
 3996, 686.001, 0.974999, 8.82609e-09, 0.000353044, 0.21802
 4002, 687.001, 0.974999, 9.20182e-09, 0.000368073, 0.218021
 4008, 688.001, 0.974999, 9.5927e-09, 0.000383708, 0.218021
 4014, 689.001, 0.974999, 9.99933e-09, 0.000399973, 0.218021
 4020, 690.001, 0.974999, 1.04223e-08, 0.000416892, 0.218021
 4026, 691.001, 0.974998, 1.08622e-08, 0.000434488, 0.218021
 4032, 692.001, 0.974998, 1.13197e-08, 0.000452789, 0.218021
 4038, 693.001, 0.974998, 1.17955e-08, 0.00047182, 0.218021
 4044, 694.001, 0.974998, 1.22902e-08, 0.00049161, 0.218021
 4050, 695.001, 0.974998, 1.28046e-08, 0.000512186, 0.218021
 4056, 696.001, 0.974998, 1.33394e-08, 0.000533578, 0.218021
 4062, 697.001, 0.974998, 1.38954e-08, 0.000555816, 0.218022
 4068, 698.001, 0.974998, 1.44733e-08, 0.000578933, 0.218022
 4074, 699.001, 0.974998, 1.5074e-08, 0.00060296, 0.218022
 4080, 700.001, 0.974998, 1.56983e-08, 0.000627933, 0.218022
 4086, 701.001, 0.974998, 1.63471e-08, 0.000653885, 0.218022
 4092, 702.001, 0.974998, 1.70213e-08, 0.000680853, 0.218022
 4098, 703.001, 0.974997, 1.77219e-08, 0.000708874, 0.218022
 4104, 704.001, 0.974997, 1.84497e-08, 0.000737988, 0.218023
 4110, 705.001, 0.974997, 1.92059e-08, 0.000768235, 0.218023
 4116, 706.001, 0.974997, 1.99914e-08, 0.000799655, 0.218023
 4122, 707.001, 0.974997, 2.08073e-08, 0.000832293, 0.218023
 4128, 708.001, 0.974997, 2.16548e-08, 0.000866191, 0.218023
 4134, 709.001, 0.974997, 2.25349e-08, 0.000901398, 0.218024
 4140, 710.001, 0.974997, 2.3449e-08, 0.000937959, 0.218024
 4146, 711.001, 0.974997, 2.43981e-08, 0.000975924, 0.218024
 4152, 712.001, 0.974996, 2.53836e-08, 0.00101534, 0.218024
 4158, 713.001, 0.974996, 2.64068e-08, 0.00105627, 0.218024
 4164, 714.001, 0.974996, 2.7469e-08, 0.00109876, 0.218025
 4170, 715.001, 0.974996, 2.85717e-08, 0.00114287, 0.218025
 4176, 716.001, 0.974996, 2.97163e-08, 0.00118865, 0.218025
 4182, 717.001, 0.974995, 3.09043e-08, 0.00123617, 0.218025
 4188, 718.001, 0.974995, 3.21372e-08, 0.00128549, 0.218026
 4194, 719.001, 0.974995, 3.34167e-08, 0.00133667, 0.218026
 4200, 720.001, 0.974995, 3.47444e-08, 0.00138978, 0.218026
 4206, 721.001, 0.974995, 3.6122e-08, 0.00144488, 0.218027
 4212, 722.001, 0.974994, 3.75513e-08, 0.00150205, 0.218027
 4218, 723.001, 0.974994, 3.90341e-08, 0.00156137, 0.218027
 4224, 724.001, 0.974994, 4.05724e-08, 0.00162289, 0.218028
 4230, 725.001, 0.974994, 4.21679e-08, 0.00168672, 0.218028
 4236, 726.001, 0.974993, 4.38229e-08, 0.00175291, 0.218028
 4242, 727.001, 0.974993, 4.55392e-08, 0.00182157, 0.218029
 4248, 728.001, 0.974993, 4.73192e-08, 0.00189277, 0.218029
 4254, 729.001, 0.974993, 4.9165e-08, 0.0019666, 0.21803
 4260, 730.001, 0.974992, 5.10789e-08, 0.00204315, 0.21803
 4266, 731.001, 0.974992, 5.30632e-08, 0.00212253, 0.21803
 4272, 732.001, 0.974992, 5.51204e-08, 0.00220482, 0.218031
 4278, 733.001, 0.974991, 5.72531e-08, 0.00229012, 0.218031
 4284, 734.001, 0.974991, 5.94638e-08, 0.00237855, 0.218032
 4290, 735.001, 0.974991, 6.17553e-08, 0.00247021, 0.218032
 4296, 736.001, 0.97499, 6.41302e-08, 0.00256521, 0.218033
 4302, 737.001, 0.97499, 6.65915e-08, 0.00266366, 0.218033
 4308, 738.001, 0.974989, 6.9142e-08, 0.00276568, 0.218034
 4314, 739.001, 0.974989, 7.1785e-08, 0.0028714, 0.218035
 4320, 740.001, 0.974989, 7.45234e-08, 0.00298094, 0.218035
 4326, 741.001, 0.974988, 7.73607e-08, 0.00309443, 0.218036
 4332, 742.001, 0.974988, 8.03e-08, 0.003212, 0.218037
 4338, 743.001, 0.974987, 8.33448e-08, 0.00333379, 0.218037
 4344, 744.001, 0.974987, 8.64988e-08, 0.00345995, 0.218038
 4350, 745.001, 0.974986, 8.97656e-08, 0.00359063, 0.218039
 4356, 746.001, 0.974986, 9.3149e-08, 0.00372596, 0.218039
 4362, 747.001, 0.974985, 9.66529e-08, 0.00386612, 0.21804
 4368, 748.001, 0.974984, 1.00281e-07, 0.00401126, 0.218041
 4374, 749.001, 0.974984, 1.04039e-07, 0.00416154, 0.218042
 4380, 750.001, 0.974983, 1.07929e-07, 0.00431715, 0.218043
 4386, 751.001, 0.974983, 1.11956e-07, 0.00447825, 0.218044
 4392, 752.001, 0.974982, 1.16126e-07, 0.00464504, 0.218045
 4398, 753.001, 0.974981, 1.20442e-07, 0.00481769, 0.218046
 4404, 754.001, 0.97498, 1.2491e-07, 0.0049964, 0.218047
 4410, 755.001, 0.97498, 1.29534e-07, 0.00518138, 0.218048
 4416, 756.001, 0.974979, 1.34321e-07, 0.00537282, 0.218049
 4422, 757.001, 0.974978, 1.39274e-07, 0.00557095, 0.21805
 4428, 758.001, 0.974977, 1.44399e-07, 0.00577597, 0.218051
 4434, 759.001, 0.974976, 1.49703e-07, 0.00598812, 0.218052
 4440, 760.001, 0.974975, 1.55191e-07, 0.00620763, 0.218053
 4446, 761.001, 0.974974, 1.60869e-07, 0.00643474, 0.218055
 4452, 762.001, 0.974974, 1.66742e-07, 0.0066697, 0.218056
 4458, 763.001, 0.974972, 1.72819e-07, 0.00691275, 0.218057
 4464, 764.001, 0.974971, 1.79104e-07, 0.00716416, 0.218059
 4470, 765.001, 0.97497, 1.85605e-07, 0.00742421, 0.21806
 4476, 766.001, 0.974969, 1.92329e-07, 0.00769317, 0.218062
 4482, 767.001, 0.974968, 1.99283e-07, 0.00797133, 0.218063
 4488, 768.001, 0.974967, 2.06475e-07, 0.00825898, 0.218065
 4494, 769.001, 0.974966, 2.13911e-07, 0.00855643, 0.218066
 4500, 770.001, 0.974964, 2.216e-07, 0.00886399, 0.218068
 4506, 771.001, 0.974963, 2.2955e-07, 0.00918198, 0.21807
 4512, 772.001, 0.974961, 2.37768e-07, 0.00951074, 0.218072
 4518, 773.001, 0.97496, 2.46265e-07, 0.00985061, 0.218073
 4524, 774.001, 0.974958, 2.55048e-07, 0.0102019, 0.218075
 4530, 775.001, 0.974957, 2.64127e-07, 0.0105651, 0.218077
 4536, 776.001, 0.974955, 2.73511e-07, 0.0109404, 0.21808
 4542, 777.001, 0.974954, 2.83209e-07, 0.0113284, 0.218082
 4548, 778.001, 0.974952, 2.93231e-07, 0.0117293, 0.218084
 4554, 779.001, 0.97495, 3.03589e-07, 0.0121435, 0.218086
 4560, 780.001, 0.974948, 3.14291e-07, 0.0125716, 0.218089
 4566, 781.001, 0.974946, 3.25349e-07, 0.013014, 0.218091
 4572, 782.001, 0.974944, 3.36774e-07, 0.013471, 0.218093
 4578, 783.001, 0.974942, 3.48578e-07, 0.0139431, 0.218096
 4584, 784.001, 0.97494, 3.60771e-07, 0.0144308, 0.218099
 4590, 785.001, 0.974938, 3.73367e-07, 0.0149347, 0.218102
 4596, 786.001, 0.974936, 3.86378e-07, 0.0154551, 0.218105
 4602, 787.001, 0.974933, 3.99816e-07, 0.0159926, 0.218108
 4608, 788.001, 0.974931, 4.13694e-07, 0.0165478, 0.218111
 4614, 789.001, 0.974928, 4.28027e-07, 0.0171211, 0.218114
 4620, 790.001, 0.974926, 4.42829e-07, 0.0177131, 0.218117
 4626, 791.001, 0.974923, 4.58112e-07, 0.0183245, 0.21812
 4632, 792.001, 0.97492, 4.73893e-07, 0.0189557, 0.218124
 4638, 793.001, 0.974917, 4.90186e-07, 0.0196075, 0.218127
 4644, 794.001, 0.974914, 5.07008e-07, 0.0202803, 0.218131
 4650, 795.001, 0.974911, 5.24373e-07, 0.0209749, 0.218135
 4656, 796.001, 0.974908, 5.42299e-07, 0.021692, 0.218139
 4662, 797.001, 0.974905, 5.60802e-07, 0.0224321, 0.218143
 4668, 798.001, 0.974901, 5.799e-07, 0.023196, 0.218147
 4674, 799.001, 0.974898, 5.99611e-07, 0.0239845, 0.218151
 4680, 800.001, 0.974894, 6.19954e-07, 0.0247982, 0.218156