File: examples/Birch_TGA_Example/Work/Cone_zba3hngy/birch_tga_1step_20_tga.csv
s,C,g/g,1/s,W/g,W/g
Time,Temp,Mass,MLR,MCC,DSC
 3, 21.0014, 0.999999, 2.18432e-07, 0.0000000E+000, 0.459601
 6, 22.0014, 0.999999, 2.50874e-07, 0.0000000E+000, 0.459673
 9, 23.0014, 0.999998, 2.87863e-07, 0.0000000E+000, 0.459756
 12, 24.0014, 0.999997, 3.29998e-07, 0.0000000E+000, 0.45985
 15, 25.0014, 0.999996, 3.77948e-07, 0.0000000E+000, 0.459957
 18, 26.0014, 0.999995, 4.32468e-07, 0.0000000E+000, 0.460078
 21, 27.0014, 0.999993, 4.94401e-07, 0.0000000E+000, 0.460217
 24, 28.0014, 0.999992, 5.64693e-07, 0.0000000E+000, 0.460373
 27, 29.0014, 0.99999, 6.44398e-07, 0.0000000E+000, 0.460551
 30, 30.0014, 0.999988, 7.34698e-07, 0.0000000E+000, 0.460753
 33, 31.0014, 0.999985, 8.36909e-07, 0.0000000E+000, 0.460981
 36, 32.0014, 0.999983, 9.52499e-07, 0.0000000E+000, 0.461239
 39, 33.0014, 0.99998, 1.08311e-06, 0.0000000E+000, 0.46153
 42, 34.0014, 0.999976, 1.23055e-06, 0.0000000E+000, 0.461859
 45, 35.0014, 0.999972, 1.39685e-06, 0.0000000E+000, 0.46223
 48, 36.0014, 0.999968, 1.58425e-06, 0.0000000E+000, 0.462648
 51, 37.0014, 0.999963, 1.79525e-06, 0.0000000E+000, 0.463118
 54, 38.0014, 0.999957, 2.0326e-06, 0.0000000E+000, 0.463647
 57, 39.0014, 0.999951, 2.29936e-06, 0.0000000E+000, 0.464242
 60, 40.0014, 0.999943, 2.59888e-06, 0.0000000E+000, 0.464909
 63, 41.0014, 0.999935, 2.9349e-06, 0.0000000E+000, 0.465658
 66, 42.0014, 0.999926, 3.31151e-06, 0.0000000E+000, 0.466497
 69, 43.0014, 0.999915, 3.73321e-06, 0.0000000E+000, 0.467437
 72, 44.0014, 0.999903, 4.20496e-06, 0.0000000E+000, 0.468488
 75, 45.0014, 0.99989, 4.73217e-06, 0.0000000E+000, 0.469663
 78, 46.0014, 0.999875, 5.32078e-06, 0.0000000E+000, 0.470974
 81, 47.0014, 0.999858, 5.97727e-06, 0.0000000E+000, 0.472436
 84, 48.0014, 0.999839, 6.70869e-06, 0.0000000E+000, 0.474064
 87, 49.0014, 0.999817, 7.52271e-06, 1.51313e-38, 0.475877
 90, 50.0014, 0.999793, 8.42766e-06, 2.18797e-38, 0.477891
 93, 51.0014, 0.999767, 9.43249e-06, 3.15659e-38, 0.480128
 96, 52.0014, 0.999737, 1.05469e-05, 4.54377e-38, 0.482608
 99, 53.0014, 0.999703, 1.17812e-05, 6.52595e-38, 0.485355
 102, 54.0014, 0.999666, 1.31466e-05, 9.35211e-38, 0.488392
 105, 55.0014, 0.999624, 1.46548e-05, 1.33728e-37, 0.491747
 108, 56.0014, 0.999578, 1.63183e-05, 1.90807e-37, 0.495447
 111, 57.0014, 0.999526, 1.81502e-05, 2.71662e-37, 0.499521
 114, 58.0014, 0.999469, 2.01641e-05, 3.85955e-37, 0.503998
 117, 59.0014, 0.999405, 2.23743e-05, 5.47175e-37, 0.508911
 120, 60.0014, 0.999334, 2.47951e-05, 7.74116e-37, 0.51429
 123, 61.0014, 0.999256, 2.74414e-05, 1.09291e-36, 0.520169
 126, 62.0014, 0.999169, 3.03275e-05, 1.53981e-36, 0.52658
 129, 63.0014, 0.999074, 3.34679e-05, 2.16504e-36, 0.533553
 132, 64.0014, 0.998968, 3.68759e-05, 3.03799e-36, 0.541118
 135, 65.0014, 0.998852, 4.05641e-05, 4.25438e-36, 0.549302
 138, 66.0014, 0.998725, 4.45431e-05, 5.94598e-36, 0.558128
 141, 67.0014, 0.998585, 4.88213e-05, 8.29385e-36, 0.567614
 144, 68.0014, 0.998431, 5.34044e-05, 1.15463e-35, 0.577771
 147, 69.0013, 0.998264, 5.82939e-05, 1.6043e-35, 0.588602
 150, 70.0013, 0.998081, 6.34867e-05, 2.22484e-35, 0.600098
 153, 71.0013, 0.997882, 6.89739e-05, 3.07954e-35, 0.612238
 156, 72.0013, 0.997667, 7.47397e-05, 4.25457e-35, 0.624984
 159, 73.0013, 0.997434, 8.076e-05, 5.86696e-35, 0.638281
 162, 74.0013, 0.997182, 8.70013e-05, 8.07546e-35, 0.652053
 165, 75.0013, 0.996911, 9.34192e-05, 1.10949e-34, 0.666197
 168, 76.0013, 0.996621, 9.99575e-05, 1.52157e-34, 0.680587
 171, 77.0013, 0.996312, 0.000106547, 2.08293e-34, 0.695064
 174, 78.0013, 0.995982, 0.000113103, 2.8463e-34, 0.709438
 177, 79.0013, 0.995633, 0.000119529, 3.88254e-34, 0.72349
 180, 80.0013, 0.995265, 0.000125711, 5.28675e-34, 0.736963
 183, 81.0013, 0.994879, 0.000131523, 7.18629e-34, 0.749574
 186, 82.0012, 0.994476, 0.000136825, 9.75145e-34, 0.761007
 189, 83.0012, 0.994059, 0.000141469, 1.32096e-33, 0.770929
 192, 84.0012, 0.993628, 0.000145297, 1.78637e-33, 0.778987
 195, 85.0012, 0.993188, 0.000148153, 2.4117e-33, 0.784831
 198, 86.0012, 0.992741, 0.000149884, 3.25048e-33, 0.788117
 201, 87.0012, 0.99229, 0.000150348, 4.37374e-33, 0.788532
 204, 88.0012, 0.99184, 0.000149424, 5.8755e-33, 0.785809
 207, 89.0012, 0.991395, 0.000147023, 7.88005e-33, 0.779748
 210, 90.0012, 0.990959, 0.000143092, 1.05514e-32, 0.770241
 213, 91.0013, 0.990538, 0.00013763, 1.41058e-32, 0.757287
 216, 92.0013, 0.990135, 0.000130688, 1.88275e-32, 0.741012
 219, 93.0013, 0.989755, 0.000122381, 2.50902e-32, 0.72168
 222, 94.0013, 0.989402, 0.000112885, 3.33837e-32, 0.699693
 225, 95.0013, 0.989079, 0.000102434, 4.43499e-32, 0.67559
 228, 96.0013, 0.988788, 9.13137e-05, 5.88278e-32, 0.65002
 231, 97.0013, 0.988531, 7.98486e-05, 7.7913e-32, 0.623717
 234, 98.0013, 0.988309, 6.8381e-05, 1.03034e-31, 0.597458
 237, 99.0014, 0.988121, 5.7251e-05, 1.36049e-31, 0.572012
 240, 100.001, 0.987965, 4.67726e-05, 1.79377e-31, 0.548086
 243, 101.001, 0.98784, 3.72118e-05, 2.36153e-31, 0.526279
 246, 102.001, 0.987741, 2.87671e-05, 3.10445e-31, 0.507037
 249, 103.001, 0.987666, 2.15582e-05, 4.07515e-31, 0.490623
 252, 104.001, 0.98761, 1.56215e-05, 5.34166e-31, 0.477116
 255, 105.001, 0.987571, 1.09153e-05, 6.99177e-31, 0.466416
 258, 106.001, 0.987544, 7.33278e-06, 9.13862e-31, 0.458275
 261, 107.001, 0.987526, 4.72103e-06, 1.19279e-30, 0.452343
 264, 108.001, 0.987515, 2.90306e-06, 1.55467e-30, 0.448216
 267, 109.001, 0.987508, 1.69873e-06, 2.02353e-30, 0.445483
 270, 110.001, 0.987504, 9.42158e-07, 2.63017e-30, 0.443767
 273, 111.001, 0.987502, 4.9318e-07, 3.41402e-30, 0.442749
 276, 112.001, 0.987501, 2.4254e-07, 4.42547e-30, 0.44218
 279, 113.001, 0.9875, 1.11512e-07, 5.72887e-30, 0.441883
 282, 114.001, 0.9875, 4.76801e-08, 7.40627e-30, 0.441739
 285, 115.001, 0.9875, 1.88524e-08, 9.56215e-30, 0.441674
 288, 116.001, 0.9875, 6.85133e-09, 1.23294e-29, 0.441646
 291, 117.001, 0.9875, 2.27371e-09, 1.58767e-29, 0.441636
 294, 118.001, 0.9875, 6.84247e-10, 2.04183e-29, 0.441632
 297, 119.001, 0.9875, 1.85337e-10, 2.62253e-29, 0.441631
 300, 120.001, 0.9875, 4.4823e-11, 3.3641e-29, 0.441631
 303, 121.001, 0.9875, 9.59621e-12, 4.30991e-29, 0.441631
 306, 122.001, 0.9875, 1.80205e-12, 5.51471e-29, 0.441631
 309, 123.001, 0.9875, 2.93922e-13, 7.04753e-29, 0.441631
 312, 124.001, 0.9875, 4.12021e-14, 8.99528e-29, 0.441631
 315, 125.001, 0.9875, 4.90839e-15, 1.14673e-28, 0.441631
 318, 126.001, 0.9875, 4.90975e-16, 1.46008e-28, 0.441631
 321, 127.001, 0.9875, 4.07088e-17, 1.85682e-28, 0.441631
 324, 128.001, 0.9875, 2.75961e-18, 2.35853e-28, 0.441631
 327, 129.001, 0.9875, 1.50712e-19, 2.99225e-28, 0.441631
 330, 130.001, 0.9875, 6.52783e-21, 3.79176e-28, 0.441631
 333, 131.001, 0.9875, 2.20505e-22, 4.79927e-28, 0.441631
 336, 132.001, 0.9875, 5.70575e-24, 6.06742e-28, 0.441631
 339, 133.001, 0.9875, 1.10954e-25, 7.66181e-28, 0.441631
 342, 134.001, 0.9875, 1.58873e-27, 9.66409e-28, 0.441631
 345, 135.001, 0.9875, 1.64191e-29, 1.21758e-27, 0.441631
 348, 136.001, 0.9875, 1.57307e-31, 1.53229e-27, 0.441631
 351, 137.001, 0.9875, 4.87481e-32, 1.92619e-27, 0.441631
 354, 138.001, 0.9875, 6.04685e-32, 2.41866e-27, 0.441631
 357, 139.001, 0.9875, 7.5842e-32, 3.03368e-27, 0.441631
 360, 140.001, 0.9875, 9.5023e-32, 3.80092e-27, 0.441631
 363, 141.001, 0.9875, 1.18925e-31, 4.75701e-27, 0.441631
 366, 142.001, 0.9875, 1.48679e-31, 5.94718e-27, 0.441631
 369, 143.001, 0.9875, 1.85678e-31, 7.42714e-27, 0.441631
 372, 144.001, 0.9875, 2.31638e-31, 9.2655e-27, 0.441631
 375, 145.001, 0.9875, 2.88667e-31, 1.15467e-26, 0.441631
 378, 146.001, 0.9875, 3.5936e-31, 1.43744e-26, 0.441631
 381, 147.001, 0.9875, 4.46898e-31, 1.78759e-26, 0.441631
 384, 148.001, 0.9875, 5.55186e-31, 2.22074e-26, 0.441631
 387, 149.001, 0.9875, 6.89004e-31, 2.75602e-26, 0.441631
 390, 150.001, 0.9875, 8.54205e-31, 3.41682e-26, 0.441631
 393, 151.001, 0.9875, 1.05794e-30, 4.23177e-26, 0.441631
 396, 152.001, 0.9875, 1.30895e-30, 5.23582e-26, 0.441631
 399, 153.001, 0.9875, 1.61791e-30, 6.47163e-26, 0.441631
 402, 154.001, 0.9875, 1.9978e-30, 7.99119e-26, 0.441631
 405, 155.001, 0.9875, 2.46446e-30, 9.85784e-26, 0.441631
 408, 156.001, 0.9875, 3.03716e-30, 1.21486e-25, 0.441631
 411, 157.001, 0.9875, 3.7393e-30, 1.49572e-25, 0.441631
 414, 158.001, 0.9875, 4.59933e-30, 1.83973e-25, 0.441631
 417, 159.001, 0.9875, 5.65175e-30, 2.2607e-25, 0.441631
 420, 160.001, 0.9875, 6.93838e-30, 2.77535e-25, 0.441631
 423, 161.001, 0.9875, 8.50987e-30, 3.40395e-25, 0.441631
 426, 162.001, 0.9875, 1.04275e-29, 4.171e-25, 0.441631
 429, 163.001, 0.9875, 1.27653e-29, 5.10614e-25, 0.441631
 432, 164.001, 0.9875, 1.56129e-29, 6.24515e-25, 0.441631
 435, 165.001, 0.9875, 1.90781e-29, 7.63123e-25, 0.441631
 438, 166.001, 0.9875, 2.32911e-29, 9.31642e-25, 0.441631
 441, 167.001, 0.9875, 2.84086e-29, 1.13635e-24, 0.441631
 444, 168.001, 0.9875, 3.46195e-29, 1.38478e-24, 0.441631
 447, 169.001, 0.9875, 4.21504e-29, 1.68602e-24, 0.441631
 450, 170.001, 0.9875, 5.12741e-29, 2.05096e-24, 0.441631
 453, 171.001, 0.9875, 6.23176e-29, 2.4927e-24, 0.441631
 456, 172.001, 0.9875, 7.56733e-29, 3.02693e-24, 0.441631
 459, 173.001, 0.9875, 9.18114e-29, 3.67246e-24, 0.441631
 462, 174.001, 0.9875, 1.11295e-28, 4.4518e-24, 0.441631
 465, 175.001, 0.9875, 1.34797e-28, 5.39189e-24, 0.441631
 468, 176.001, 0.9875, 1.63123e-28, 6.52493e-24, 0.441631
 471, 177.001, 0.9875, 1.97234e-28, 7.88938e-24, 0.441631
 474, 178.001, 0.9875, 2.38278e-28, 9.53113e-24, 0.441631
 477, 179.001, 0.9875, 2.87622e-28, 1.15049e-23, 0.441631
 480, 180.001, 0.9875, 3.46896e-28, 1.38759e-23, 0.441631
 483, 181.001, 0.9875, 4.18041e-28, 1.67216e-23, 0.441631
 486, 182.001, 0.9875, 5.03364e-28, 2.01346e-23, 0.441631
 489, 183.001, 0.9875, 6.05608e-28, 2.42243e-23, 0.441631
 492, 184.001, 0.9875, 7.28031e-28, 2.91212e-23, 0.441631
 495, 185.001, 0.9875, 8.74498e-28, 3.49799e-23, 0.441631
 498, 186.001, 0.9875, 1.04959e-27, 4.19837e-23, 0.441631
 501, 187.001, 0.9875, 1.25875e-27, 5.03499e-23, 0.441631
 504, 188.001, 0.9875, 1.50839e-27, 6.03357e-23, 0.441631
 507, 189.001, 0.9875, 1.80613e-27, 7.22453e-23, 0.441631
 510, 190.001, 0.9875, 2.16096e-27, 8.64385e-23, 0.441631
 513, 191.001, 0.9875, 2.5835e-27, 1.0334e-22, 0.441631
 516, 192.001, 0.9875, 3.0863e-27, 1.23452e-22, 0.441631
 519, 193.001, 0.9875, 3.68413e-27, 1.47365e-22, 0.441631
 522, 194.001, 0.9875, 4.39443e-27, 1.75777e-22, 0.441631
 525, 195.001, 0.9875, 5.23773e-27, 2.09509e-22, 0.441631
 528, 196.001, 0.9875, 6.2382e-27, 2.49528e-22, 0.441631
 531, 197.001, 0.9875, 7.42424e-27, 2.96969e-22, 0.441631
 534, 198.001, 0.9875, 8.82925e-27, 3.5317e-22, 0.441631
 537, 199.001, 0.9875, 1.04924e-26, 4.19698e-22, 0.441631
 540, 200.001, 0.9875, 1.24599e-26, 4.98394e-22, 0.441631
 543, 201.001, 0.9875, 1.47854e-26, 5.91418e-22, 0.441631
 546, 202.001, 0.9875, 1.75325e-26, 7.01299e-22, 0.441631
 549, 203.001, 0.9875, 2.0775e-26, 8.31e-22, 0.441631
 552, 204.001, 0.9875, 2.45997e-26, 9.83988e-22, 0.441631
 555, 205.001, 0.9875, 2.91079e-26, 1.16432e-21, 0.441631
 558, 206.001, 0.9875, 3.44182e-26, 1.37673e-21, 0.441631
 561, 207.001, 0.9875, 4.06689e-26, 1.62675e-21, 0.441631
 564, 208.001, 0.9875, 4.80213e-26, 1.92085e-21, 0.441631
 567, 209.001, 0.9875, 5.6664e-26, 2.26656e-21, 0.441631
 570, 210.001, 0.9875, 6.68164e-26, 2.67265e-21, 0.441631
 573, 211.001, 0.9875, 7.87341e-26, 3.14936e-21, 0.441631
 576, 212.001, 0.9875, 9.27147e-26, 3.70859e-21, 0.441631
 579, 213.001, 0.9875, 1.09104e-25, 4.36418e-21, 0.441631
 582, 214.001, 0.9875, 1.28306e-25, 5.13223e-21, 0.441631
 585, 215.001, 0.9875, 1.50786e-25, 6.03145e-21, 0.441631
 588, 216.001, 0.9875, 1.77088e-25, 7.08354e-21, 0.441631
 591, 217.001, 0.9875, 2.07842e-25, 8.31369e-21, 0.441631
 594, 218.001, 0.9875, 2.43778e-25, 9.75111e-21, 0.441631
 597, 219.001, 0.9875, 2.85741e-25, 1.14297e-20, 0.441631
 600, 220.001, 0.9875, 3.34713e-25, 1.33885e-20, 0.441631
 603, 221.001, 0.9875, 3.91826e-25, 1.56731e-20, 0.441631
 606, 222.001, 0.9875, 4.58393e-25, 1.83357e-20, 0.441631
 609, 223.001, 0.9875, 5.35931e-25, 2.14372e-20, 0.441631
 612, 224.001, 0.9875, 6.26189e-25, 2.50476e-20, 0.441631
 615, 225.001, 0.9875, 7.31192e-25, 2.92477e-20, 0.441631
 618, 226.001, 0.9875, 8.53272e-25, 3.41309e-20, 0.441631
 621, 227.001, 0.9875, 9.95119e-25, 3.98048e-20, 0.441631
 624, 228.001, 0.9875, 1.15984e-24, 4.63934e-20, 0.441631
 627, 229.001, 0.9875, 1.35099e-24, 5.40397e-20, 0.441631
 630, 230.001, 0.9875, 1.5727e-24, 6.2908e-20, 0.441631
 633, 231.001, 0.9875, 1.82969e-24, 7.31875e-20, 0.441631
 636, 232.001, 0.9875, 2.12739e-24, 8.50957e-20, 0.441631
 639, 233.001, 0.9875, 2.47206e-24, 9.88826e-20, 0.441631
 642, 234.001, 0.9875, 2.87088e-24, 1.14835e-19, 0.441631
 645, 235.001, 0.9875, 3.33207e-24, 1.33283e-19, 0.441631
 648, 236.001, 0.9875, 3.86509e-24, 1.54604e-19, 0.441631
 651, 237.001, 0.9875, 4.48076e-24, 1.79231e-19, 0.441631
 654, 238.001, 0.9875, 5.19151e-24, 2.0766e-19, 0.441631
 657, 239.001, 0.9875, 6.01153e-24, 2.40461e-19, 0.441631
 660, 240.001, 0.9875, 6.9571e-24, 2.78284e-19, 0.441631
 663, 241.001, 0.9875, 8.04684e-24, 3.21873e-19, 0.441631
 666, 242.001, 0.9875, 9.302e-24, 3.7208e-19, 0.441631
 669, 243.001, 0.9875, 1.07469e-23, 4.29877e-19, 0.441631
 672, 244.001, 0.9875, 1.24093e-23, 4.96374e-19, 0.441631
 675, 245.001, 0.9875, 1.4321e-23, 5.72839e-19, 0.441631
 678, 246.001, 0.9875, 1.6518e-23, 6.60719e-19, 0.441631
 681, 247.001, 0.9875, 1.90415e-23, 7.61662e-19, 0.441631
 684, 248.001, 0.9875, 2.19387e-23, 8.77548e-19, 0.441631
 687, 249.001, 0.9875, 2.5263e-23, 1.01052e-18, 0.441631
 690, 250.001, 0.9875, 2.90752e-23, 1.16301e-18, 0.441631
 693, 251.001, 0.9875, 3.34448e-23, 1.33779e-18, 0.441631
 696, 252.001, 0.9875, 3.84506e-23, 1.53803e-18, 0.441631
 699, 253.001, 0.9875, 4.41822e-23, 1.76729e-18, 0.441631
 702, 254.001, 0.9875, 5.07415e-23, 2.02966e-18, 0.441631
 705, 255.001, 0.9875, 5.82439e-23, 2.32976e-18, 0.441631
 708, 256.001, 0.9875, 6.68208e-23, 2.67283e-18, 0.441631
 711, 257.001, 0.9875, 7.6621e-23, 3.06484e-18, 0.441631
 714, 258.001, 0.9875, 8.78133e-23, 3.51253e-18, 0.441631
 717, 259.001, 0.9875, 1.00589e-22, 4.02356e-18, 0.441631
 720, 260.001, 0.9875, 1.15164e-22, 4.60658e-18, 0.441631
 723, 261.001, 0.9875, 1.31785e-22, 5.27141e-18, 0.441631
 726, 262.001, 0.9875, 1.50729e-22, 6.02916e-18, 0.441631
 729, 263.001, 0.9875, 1.72309e-22, 6.89237e-18, 0.441631
 732, 264.001, 0.9875, 1.96881e-22, 7.87525e-18, 0.441631
 735, 265.001, 0.9875, 2.24846e-22, 8.99384e-18, 0.441631
 738, 266.001, 0.9875, 2.56656e-22, 1.02662e-17, 0.441631
 741, 267.001, 0.9875, 2.92823e-22, 1.17129e-17, 0.441631
 744, 268.001, 0.9875, 3.33924e-22, 1.3357e-17, 0.441631
 747, 269.001, 0.9875, 3.80609e-22, 1.52244e-17, 0.441631
 750, 270.001, 0.9875, 4.33612e-22, 1.73445e-17, 0.441631
 753, 271.001, 0.9875, 4.9376e-22, 1.97504e-17, 0.441631
 756, 272.001, 0.9875, 5.61983e-22, 2.24793e-17, 0.441631
 759, 273.001, 0.9875, 6.3933e-22, 2.55732e-17, 0.441631
 762, 274.001, 0.9875, 7.26979e-22, 2.90792e-17, 0.441631
 765, 275.001, 0.9875, 8.26257e-22, 3.30503e-17, 0.441631
 768, 276.001, 0.9875, 9.38655e-22, 3.75462e-17, 0.441631
 771, 277.001, 0.9875, 1.06585e-21, 4.26339e-17, 0.441631
 774, 278.001, 0.9875, 1.20972e-21, 4.83888e-17, 0.441631
 777, 279.001, 0.9875, 1.37238e-21, 5.48952e-17, 0.441631
 780, 280.001, 0.9875, 1.5562e-21, 6.22482e-17, 0.441631
 783, 281.001, 0.9875, 1.76385e-21, 7.0554e-17, 0.441631
 786, 282.001, 0.9875, 1.9983e-21, 7.99319e-17, 0.441631
 789, 283.001, 0.9875, 2.26289e-21, 9.05158e-17, 0.441631
 792, 284.001, 0.9875, 2.56138e-21, 1.02455e-16, 0.441631
 795, 285.001, 0.9875, 2.89796e-21, 1.15918e-16, 0.441631
 798, 286.001, 0.9875, 3.27731e-21, 1.31092e-16, 0.441631
 801, 287.001, 0.9875, 3.70469e-21, 1.48188e-16, 0.441631
 804, 288.001, 0.9875, 4.18598e-21, 1.67439e-16, 0.441631
 807, 289.001, 0.9875, 4.72774e-21, 1.89109e-16, 0.441631
 810, 290.001, 0.9875, 5.3373e-21, 2.13492e-16, 0.441631
 813, 291.001, 0.9875, 6.02287e-21, 2.40915e-16, 0.441631
 816, 292.001, 0.9875, 6.7936e-21, 2.71744e-16, 0.441631
 819, 293.001, 0.9875, 7.65969e-21, 3.06388e-16, 0.441631
 822, 294.001, 0.9875, 8.63255e-21, 3.45302e-16, 0.441631
 825, 295.001, 0.9875, 9.72487e-21, 3.88995e-16, 0.441631
 828, 296.001, 0.9875, 1.09508e-20, 4.38033e-16, 0.441631
 831, 297.001, 0.9875, 1.23262e-20, 4.93048e-16, 0.441631
 834, 298.001, 0.9875, 1.38686e-20, 5.54742e-16, 0.441631
 837, 299.001, 0.9875, 1.55975e-20, 6.23899e-16, 0.441631
 840, 300.001, 0.9875, 1.75348e-20, 7.0139e-16, 0.441631
 843, 301.001, 0.9875, 1.97046e-20, 7.88184e-16, 0.441631
 846, 302.001, 0.9875, 2.2134e-20, 8.85359e-16, 0.441631
 849, 303.001, 0.9875, 2.48528e-20, 9.94114e-16, 0.441631
 852, 304.001, 0.9875, 2.78945e-20, 1.11578e-15, 0.441631
 855, 305.001, 0.9875, 3.12959e-20, 1.25184e-15, 0.441631
 858, 306.001, 0.9875, 3.50981e-20, 1.40392e-15, 0.441631
 861, 307.001, 0.9875, 3.93467e-20, 1.57387e-15, 0.441631
 864, 308.001, 0.9875, 4.40922e-20, 1.76369e-15, 0.441631
 867, 309.001, 0.9875, 4.93907e-20, 1.97563e-15, 0.441631
 870, 310.001, 0.9875, 5.53045e-20, 2.21218e-15, 0.441631
 873, 311.001, 0.9875, 6.19023e-20, 2.47609e-15, 0.441631
 876, 312.001, 0.9875, 6.92606e-20, 2.77043e-15, 0.441631
 879, 313.001, 0.9875, 7.74639e-20, 3.09856e-15, 0.441631
 882, 314.001, 0.9875, 8.66058e-20, 3.46423e-15, 0.441631
 885, 315.001, 0.9875, 9.67898e-20, 3.87159e-15, 0.441631
 888, 316.001, 0.9875, 1.0813e-19, 4.32522e-15, 0.441631
 891, 317.001, 0.9875, 1.20755e-19, 4.83018e-15, 0.441631
 894, 318.001, 0.9875, 1.34802e-19, 5.39209e-15, 0.441631
 897, 319.001, 0.9875, 1.50428e-19, 6.01713e-15, 0.441631
 900, 320.001, 0.9875, 1.67803e-19, 6.71213e-15, 0.441631
 903, 321.001, 0.9875, 1.87116e-19, 7.48466e-15, 0.441631
 906, 322.001, 0.9875, 2.08576e-19, 8.34304e-15, 0.441631
 909, 323.001, 0.9875, 2.32412e-19, 9.29649e-15, 0.441631
 912, 324.001, 0.9875, 2.58878e-19, 1.03551e-14, 0.441631
 915, 325.001, 0.9875, 2.88255e-19, 1.15302e-14, 0.441631
 918, 326.001, 0.9875, 3.20849e-19, 1.2834e-14, 0.441631
 921, 327.001, 0.9875, 3.57002e-19, 1.42801e-14, 0.441631
 924, 328.001, 0.9875, 3.97087e-19, 1.58835e-14, 0.441631
 927, 329.001, 0.9875, 4.41517e-19, 1.76607e-14, 0.441631
 930, 330.001, 0.9875, 4.90746e-19, 1.96298e-14, 0.441631
 933, 331.001, 0.9875, 5.45272e-19, 2.18109e-14, 0.441631
 936, 332.001, 0.9875, 6.05646e-19, 2.42259e-14, 0.441631
 939, 333.001, 0.9875, 6.72472e-19, 2.68989e-14, 0.441631
 942, 334.001, 0.9875, 7.46414e-19, 2.98566e-14, 0.441631
 945, 335.001, 0.9875, 8.28203e-19, 3.31281e-14, 0.441631
 948, 336.001, 0.9875, 9.18639e-19, 3.67456e-14, 0.441631
 951, 337.001, 0.9875, 1.0186e-18, 4.07442e-14, 0.441631
 954, 338.001, 0.9875, 1.12907e-18, 4.51627e-14, 0.441631
 957, 339.001, 0.9875, 1.25109e-18, 5.00435e-14, 0.441631
 960, 340.001, 0.9875, 1.38583e-18, 5.54332e-14, 0.441631
 963, 341.001, 0.9875, 1.53457e-18, 6.1383e-14, 0.441631
 966, 342.001, 0.9875, 1.69872e-18, 6.79488e-14, 0.441631
 969, 343.001, 0.9875, 1.8798e-18, 7.51922e-14, 0.441631
 972, 344.001, 0.9875, 2.07951e-18, 8.31803e-14, 0.441631
 975, 345.001, 0.9875, 2.29968e-18, 9.19871e-14, 0.441631
 978, 346.001, 0.9875, 2.54233e-18, 1.01693e-13, 0.441631
 981, 347.001, 0.9875, 2.80968e-18, 1.12387e-13, 0.441631
 984, 348.001, 0.9875, 3.10414e-18, 1.24166e-13, 0.441631
 987, 349.001, 0.9875, 3.42836e-18, 1.37134e-13, 0.441631
 990, 350.001, 0.9875, 3.78524e-18, 1.5141e-13, 0.441631
 993, 351.001, 0.9875, 4.17795e-18, 1.67118e-13, 0.441631
 996, 352.001, 0.9875, 4.60994e-18, 1.84398e-13, 0.441631
 999, 353.001, 0.9875, 5.085e-18, 2.034e-13, 0.441631
 1002, 354.001, 0.9875, 5.60726e-18, 2.2429e-13, 0.441631
 1005, 355.001, 0.9875, 6.18123e-18, 2.47249e-13, 0.441631
 1008, 356.001, 0.9875, 6.81185e-18, 2.72474e-13, 0.441631
 1011, 357.001, 0.9875, 7.5045e-18, 3.0018e-13, 0.441631
 1014, 358.001, 0.9875, 8.26503e-18, 3.30601e-13, 0.441631
 1017, 359.001, 0.9875, 9.09986e-18, 3.63994e-13, 0.441631
 1020, 360.001, 0.9875, 1.0016e-17, 4.00639e-13, 0.441631
 1023, 361.001, 0.9875, 1.1021e-17, 4.40839e-13, 0.441631
 1026, 362.001, 0.9875, 1.21232e-17, 4.84926e-13, 0.441631
 1029, 363.001, 0.9875, 1.33316e-17, 5.33263e-13, 0.441631
 1032, 364.001, 0.9875, 1.46561e-17, 5.86244e-13, 0.441631
 1035, 365.001, 0.9875, 1.61074e-17, 6.44296e-13, 0.441631
 1038, 366.001, 0.9875, 1.76972e-17, 7.07889e-13, 0.441631
 1041, 367.001, 0.9875, 1.94382e-17, 7.77529e-13, 0.441631
 1044, 368.001, 0.9875, 2.13442e-17, 8.5377e-13, 0.441631
 1047, 369.001, 0.9875, 2.34303e-17, 9.37213e-13, 0.441631
 1050, 370.001, 0.9875, 2.57129e-17, 1.02851e-12, 0.441631
 1053, 371.001, 0.9875, 2.82096e-17, 1.12838e-12, 0.441631
 1056, 372.001, 0.9875, 3.09399e-17, 1.2376e-12, 0.441631
 1059, 373.001, 0.9875, 3.39247e-17, 1.35699e-12, 0.441631
 1062, 374.001, 0.9875, 3.71869e-17, 1.48748e-12, 0.441631
 1065, 375.001, 0.9875, 4.07513e-17, 1.63005e-12, 0.441631
 1068, 376.001, 0.9875, 4.46447e-17, 1.78579e-12, 0.441631
 1071, 377.001, 0.9875, 4.88963e-17, 1.95585e-12, 0.441631
 1074, 378.001, 0.9875, 5.35379e-17, 2.14152e-12, 0.441631
 1077, 379.001, 0.9875, 5.86038e-17, 2.34415e-12, 0.441631
 1080, 380.001, 0.9875, 6.41313e-17, 2.56525e-12, 0.441631
 1083, 381.001, 0.9875, 7.01608e-17, 2.80643e-12, 0.441631
 1086, 382.001, 0.9875, 7.67361e-17, 3.06944e-12, 0.441631
 1089, 383.001, 0.9875, 8.39047e-17, 3.35619e-12, 0.441631
 1092, 384.001, 0.9875, 9.17181e-17, 3.66873e-12, 0.441631
 1095, 385.001, 0.9875, 1.00232e-16, 4.00928e-12, 0.441631
 1098, 386.001, 0.9875, 1.09507e-16, 4.38027e-12, 0.441631
 1101, 387.001, 0.9875, 1.19608e-16, 4.7843e-12, 0.441631
 1104, 388.001, 0.9875, 1.30605e-16, 5.22421e-12, 0.441631
 1107, 389.001, 0.9875, 1.42576e-16, 5.70305e-12, 0.441631
 1110, 390.001, 0.9875, 1.55603e-16, 6.22413e-12, 0.441631
 1113, 391.001, 0.9875, 1.69776e-16, 6.79103e-12, 0.441631
 1116, 392.001, 0.9875, 1.85191e-16, 7.40763e-12, 0.441631
 1119, 393.001, 0.9875, 2.01953e-16, 8.07811e-12, 0.441631
 1122, 394.001, 0.9875, 2.20174e-16, 8.80698e-12, 0.441631
 1125, 395.001, 0.9875, 2.39978e-16, 9.59913e-12, 0.441631
 1128, 396.001, 0.9875, 2.61496e-16, 1.04598e-11, 0.441631
 1131, 397.001, 0.9875, 2.8487e-16, 1.13948e-11, 0.441631
 1134, 398.001, 0.9875, 3.10255e-16, 1.24102e-11, 0.441631
 1137, 399.001, 0.9875, 3.37815e-16, 1.35126e-11, 0.441631
 1140, 400.001, 0.9875, 3.67731e-16, 1.47092e-11, 0.441631
 1143, 401.001, 0.9875, 4.00195e-16, 1.60078e-11, 0.441631
 1146, 402.001, 0.9875, 4.35416e-16, 1.74167e-11, 0.441631
 1149, 403.001, 0.9875, 4.73619e-16, 1.89448e-11, 0.441631
 1152, 404.001, 0.9875, 5.15046e-16, 2.06018e-11, 0.441631
 1155, 405.001, 0.9875, 5.59957e-16, 2.23983e-11, 0.441631
 1158, 406.001, 0.9875, 6.08635e-16, 2.43454e-11, 0.441631
 1161, 407.001, 0.9875, 6.61383e-16, 2.64553e-11, 0.441631
 1164, 408.001, 0.9875, 7.18527e-16, 2.87411e-11, 0.441631
 1167, 409.001, 0.9875, 7.80418e-16, 3.12167e-11, 0.441631
 1170, 410.001, 0.9875, 8.47435e-16, 3.38974e-11, 0.441631
 1173, 411.001, 0.9875, 9.19986e-16, 3.67994e-11, 0.441631
 1176, 412.001, 0.9875, 9.98509e-16, 3.99403e-11, 0.441631
 1179, 413.001, 0.9875, 1.08347e-15, 4.3339e-11, 0.441631
 1182, 414.001, 0.9875, 1.17539e-15, 4.70156e-11, 0.441631
 1185, 415.001, 0.9875, 1.2748e-15, 5.09921e-11, 0.441631
 1188, 416.001, 0.9875, 1.3823e-15, 5.52919e-11, 0.441631
 1191, 417.001, 0.9875, 1.49851e-15, 5.99402e-11, 0.441631
 1194, 418.001, 0.9875, 1.6241e-15, 6.49641e-11, 0.441631
 1197, 419.001, 0.9875, 1.75982e-15, 7.03927e-11, 0.441631
 1200, 420.001, 0.9875, 1.90643e-15, 7.62573e-11, 0.441631
 1203, 421.001, 0.9875, 2.06478e-15, 8.25914e-11, 0.441631
 1206, 422.001, 0.9875, 2.23578e-15, 8.94311e-11, 0.441631
 1209, 423.001, 0.9875, 2.42038e-15, 9.68151e-11, 0.441631
 1212, 424.001, 0.9875, 2.61962e-15, 1.04785e-10, 0.441631
 1215, 425.001, 0.9875, 2.83463e-15, 1.13385e-10, 0.441631
 1218, 426.001, 0.9875, 3.06659e-15, 1.22663e-10, 0.441631
 1221, 427.001, 0.9875, 3.31678e-15, 1.32671e-10, 0.441631
 1224, 428.001, 0.9875, 3.58659e-15, 1.43464e-10, 0.441631
 1227, 429.001, 0.9875, 3.87748e-15, 1.55099e-10, 0.441631
 1230, 430.001, 0.9875, 4.19103e-15, 1.67641e-10, 0.441631
 1233, 431.001, 0.9875, 4.52894e-15, 1.81157e-10, 0.441631
 1236, 432.001, 0.9875, 4.89301e-15, 1.9572e-10, 0.441631
 1239, 433.001, 0.9875, 5.2852e-15, 2.11408e-10, 0.441631
 1242, 434.001, 0.9875, 5.70757e-15, 2.28303e-10, 0.441631
 1245, 435.001, 0.9875, 6.16236e-15, 2.46494e-10, 0.441631
 1248, 436.001, 0.9875, 6.65195e-15, 2.66078e-10, 0.441631
 1251, 437.001, 0.9875, 7.1789e-15, 2.87156e-10, 0.441631
 1254, 438.001, 0.9875, 7.74592e-15, 3.09837e-10, 0.441631
 1257, 439.001, 0.9875, 8.35595e-15, 3.34238e-10, 0.441631
 1260, 440.001, 0.9875, 9.0121e-15, 3.60484e-10, 0.441631
 1263, 441.001, 0.9875, 9.71772e-15, 3.88709e-10, 0.441631
 1266, 442.001, 0.9875, 1.04764e-14, 4.19055e-10, 0.441631
 1269, 443.001, 0.9875, 1.12919e-14, 4.51676e-10, 0.441631
 1272, 444.001, 0.9875, 1.21684e-14, 4.86734e-10, 0.441631
 1275, 445.001, 0.9875, 1.31101e-14, 5.24404e-10, 0.441631
 1278, 446.001, 0.9875, 1.41218e-14, 5.64873e-10, 0.441631
 1281, 447.001, 0.9875, 1.52085e-14, 6.08338e-10, 0.441631
 1284, 448.001, 0.9875, 1.63754e-14, 6.55014e-10, 0.441631
 1287, 449.001, 0.9875, 1.76282e-14, 7.05127e-10, 0.441631
 1290, 450.001, 0.9875, 1.8973e-14, 7.58919e-10, 0.441631
 1293, 451.001, 0.9875, 2.04162e-14, 8.16648e-10, 0.441631
 1296, 452.001, 0.9875, 2.19648e-14, 8.78592e-10, 0.441631
 1299, 453.001, 0.9875, 2.36261e-14, 9.45043e-10, 0.441631
 1302, 454.001, 0.9875, 2.54079e-14, 1.01632e-09, 0.441631
 1305, 455.001, 0.9875, 2.73187e-14, 1.09275e-09, 0.441631
 1308, 456.001, 0.9875, 2.93673e-14, 1.17469e-09, 0.441631
 1311, 457.001, 0.9875, 3.15633e-14, 1.26253e-09, 0.441631
 1314, 458.001, 0.9875, 3.39168e-14, 1.35667e-09, 0.441631
 1317, 459.001, 0.9875, 3.64387e-14, 1.45755e-09, 0.441631
 1320, 460.001, 0.9875, 3.91404e-14, 1.56561e-09, 0.441631
 1323, 461.001, 0.9875, 4.20342e-14, 1.68137e-09, 0.441631
 1326, 462.001, 0.9875, 4.51332e-14, 1.80533e-09, 0.441631
 1329, 463.001, 0.9875, 4.84513e-14, 1.93805e-09, 0.441631
 1332, 464.001, 0.9875, 5.20034e-14, 2.08013e-09, 0.441631
 1335, 465.001, 0.9875, 5.58051e-14, 2.23221e-09, 0.441631
 1338, 466.001, 0.9875, 5.98734e-14, 2.39494e-09, 0.441631
 1341, 467.001, 0.9875, 6.4226e-14, 2.56904e-09, 0.441631
 1344, 468.001, 0.9875, 6.8882e-14, 2.75528e-09, 0.441631
 1347, 469.001, 0.9875, 7.38617e-14, 2.95447e-09, 0.441631
 1350, 470.001, 0.9875, 7.91864e-14, 3.16746e-09, 0.441631
 1353, 471.001, 0.9875, 8.48791e-14, 3.39516e-09, 0.441631
 1356, 472.001, 0.9875, 9.09641e-14, 3.63856e-09, 0.441631
 1359, 473.001, 0.9875, 9.74673e-14, 3.89869e-09, 0.441631
 1362, 474.001, 0.9875, 1.04416e-13, 4.17664e-09, 0.441631
 1365, 475.001, 0.9875, 1.1184e-13, 4.47358e-09, 0.441631
 1368, 476.001, 0.9875, 1.19769e-13, 4.79076e-09, 0.441631
 1371, 477.001, 0.9875, 1.28237e-13, 5.12949e-09, 0.441631
 1374, 478.001, 0.9875, 1.37279e-13, 5.49116e-09, 0.441631
 1377, 479.001, 0.9875, 1.46932e-13, 5.87728e-09, 0.441631
 1380, 480.001, 0.9875, 1.57235e-13, 6.28941e-09, 0.441631
 1383, 481.001, 0.9875, 1.68231e-13, 6.72923e-09, 0.441631
 1386, 482.001, 0.9875, 1.79963e-13, 7.19851e-09, 0.441631
 1389, 483.001, 0.9875, 1.92479e-13, 7.69916e-09, 0.441631
 1392, 484.001, 0.9875, 2.05829e-13, 8.23315e-09, 0.441631
 1395, 485.001, 0.9875, 2.20066e-13, 8.80263e-09, 0.441631
 1398, 486.001, 0.9875, 2.35246e-13, 9.40984e-09, 0.441631
 1401, 487.001, 0.9875, 2.51429e-13, 1.00572e-08, 0.441631
 1404, 488.001, 0.9875, 2.68679e-13, 1.07471e-08, 0.441631
 1407, 489.001, 0.9875, 2.87062e-13, 1.14825e-08, 0.441631
 1410, 490.001, 0.9875, 3.06649e-13, 1.2266e-08, 0.441631
 1413, 491.001, 0.9875, 3.27517e-13, 1.31007e-08, 0.441631
 1416, 492.001, 0.9875, 3.49744e-13, 1.39898e-08, 0.441631
 1419, 493.001, 0.9875, 3.73416e-13, 1.49366e-08, 0.441631
 1422, 494.001, 0.9875, 3.98622e-13, 1.59449e-08, 0.441631
 1425, 495.001, 0.9875, 4.25457e-13, 1.70183e-08, 0.441631
 1428, 496.001, 0.9875, 4.54021e-13, 1.81609e-08, 0.441631
 1431, 497.001, 0.9875, 4.84422e-13, 1.93769e-08, 0.441631
 1434, 498.001, 0.9875, 5.16771e-13, 2.06709e-08, 0.441631
 1437, 499.001, 0.9875, 5.51189e-13, 2.20476e-08, 0.441631
 1440, 500.001, 0.9875, 5.878e-13, 2.3512e-08, 0.441631
 1443, 501.001, 0.9875, 6.26739e-13, 2.50696e-08, 0.441631
 1446, 502.001, 0.9875, 6.68148e-13, 2.67259e-08, 0.441631
 1449, 503.001, 0.9875, 7.12174e-13, 2.8487e-08, 0.441631
 1452, 504.001, 0.9875, 7.58977e-13, 3.03591e-08, 0.441631
 1455, 505.001, 0.9875, 8.08724e-13, 3.23489e-08, 0.441631
 1458, 506.001, 0.9875, 8.6159e-13, 3.44636e-08, 0.441631
 1461, 507.001, 0.9875, 9.17764e-13, 3.67105e-08, 0.441631
 1464, 508.001, 0.9875, 9.77441e-13, 3.90977e-08, 0.441631
 1467, 509.001, 0.9875, 1.04083e-12, 4.16333e-08, 0.441631
 1470, 510.001, 0.9875, 1.10816e-12, 4.43262e-08, 0.441631
 1473, 511.001, 0.9875, 1.17965e-12, 4.71859e-08, 0.441631
 1476, 512.001, 0.9875, 1.25555e-12, 5.02219e-08, 0.441631
 1479, 513.001, 0.9875, 1.33612e-12, 5.34449e-08, 0.441631
 1482, 514.001, 0.9875, 1.42164e-12, 5.68657e-08, 0.441631
 1485, 515.001, 0.9875, 1.5124e-12, 6.04959e-08, 0.441631
 1488, 516.001, 0.9875, 1.6087e-12, 6.43478e-08, 0.441631
 1491, 517.001, 0.9875, 1.71086e-12, 6.84343e-08, 0.441631
 1494, 518.001, 0.9875, 1.81922e-12, 7.27689e-08, 0.441631
 1497, 519.001, 0.9875, 1.93415e-12, 7.73661e-08, 0.441631
 1500, 520.001, 0.9875, 2.05603e-12, 8.2241e-08, 0.441631
 1503, 521.001, 0.9875, 2.18524e-12, 8.74096e-08, 0.441631
 1506, 522.001, 0.9875, 2.32222e-12, 9.28889e-08, 0.441631
 1509, 523.001, 0.9875, 2.46741e-12, 9.86965e-08, 0.441631
 1512, 524.001, 0.9875, 2.62128e-12, 1.04851e-07, 0.441631
 1515, 525.001, 0.9875, 2.78432e-12, 1.11373e-07, 0.441631
 1518, 526.001, 0.9875, 2.95706e-12, 1.18282e-07, 0.441631
 1521, 527.001, 0.9875, 3.14004e-12, 1.25602e-07, 0.441631
 1524, 528.001, 0.9875, 3.33385e-12, 1.33354e-07, 0.441631
 1527, 529.001, 0.9875, 3.53908e-12, 1.41563e-07, 0.441631
 1530, 530.001, 0.9875, 3.7564e-12, 1.50256e-07, 0.441631
 1533, 531.001, 0.9875, 3.98646e-12, 1.59459e-07, 0.441631
 1536, 532.001, 0.9875, 4.23e-12, 1.692e-07, 0.441631
 1539, 533.001, 0.9875, 4.48774e-12, 1.7951e-07, 0.441631
 1542, 534.001, 0.9875, 4.7605e-12, 1.9042e-07, 0.441631
 1545, 535.001, 0.9875, 5.0491e-12, 2.01964e-07, 0.441631
 1548, 536.001, 0.9875, 5.35441e-12, 2.14177e-07, 0.441631
 1551, 537.001, 0.9875, 5.67737e-12, 2.27095e-07, 0.441631
 1554, 538.001, 0.9875, 6.01893e-12, 2.40757e-07, 0.441631
 1557, 539.001, 0.9875, 6.38012e-12, 2.55205e-07, 0.441631
 1560, 540.001, 0.9875, 6.76203e-12, 2.70481e-07, 0.441631
 1563, 541.001, 0.9875, 7.16576e-12, 2.8663e-07, 0.441631
 1566, 542.001, 0.9875, 7.59252e-12, 3.03701e-07, 0.441631
 1569, 543.001, 0.9875, 8.04356e-12, 3.21742e-07, 0.441631
 1572, 544.001, 0.9875, 8.52019e-12, 3.40808e-07, 0.441631
 1575, 545.001, 0.9875, 9.02379e-12, 3.60952e-07, 0.441631
 1578, 546.001, 0.9875, 9.55582e-12, 3.82233e-07, 0.441631
 1581, 547.001, 0.9875, 1.01178e-11, 4.04712e-07, 0.441631
 1584, 548.001, 0.9875, 1.07113e-11, 4.28454e-07, 0.441631
 1587, 549.001, 0.9875, 1.13381e-11, 4.53525e-07, 0.441631
 1590, 550.001, 0.9875, 1.19999e-11, 4.79997e-07, 0.441631
 1593, 551.001, 0.9875, 1.26986e-11, 5.07945e-07, 0.441631
 1596, 552.001, 0.9875, 1.34361e-11, 5.37446e-07, 0.441631
 1599, 553.001, 0.9875, 1.42146e-11, 5.68583e-07, 0.441631
 1602, 554.001, 0.9875, 1.5036e-11, 6.01441e-07, 0.441631
 1605, 555.001, 0.9875, 1.59028e-11, 6.36113e-07, 0.441631
 1608, 556.001, 0.9875, 1.68173e-11, 6.72692e-07, 0.441631
 1611, 557.001, 0.9875, 1.7782e-11, 7.11278e-07, 0.441631
 1614, 558.001, 0.9875, 1.87994e-11, 7.51978e-07, 0.441631
 1617, 559.001, 0.9875, 1.98725e-11, 7.94899e-07, 0.441631
 1620, 560.001, 0.9875, 2.1004e-11, 8.40159e-07, 0.441631
 1623, 561.001, 0.9875, 2.21969e-11, 8.87877e-07, 0.441631
 1626, 562.001, 0.9875, 2.34546e-11, 9.38182e-07, 0.441631
 1629, 563.001, 0.9875, 2.47802e-11, 9.91206e-07, 0.441631
 1632, 564.001, 0.9875, 2.61772e-11, 1.04709e-06, 0.441631
 1635, 565.001, 0.9875, 2.76495e-11, 1.10598e-06, 0.441631
 1638, 566.001, 0.9875, 2.92007e-11, 1.16803e-06, 0.441631
 1641, 567.001, 0.9875, 3.0835e-11, 1.2334e-06, 0.441631
 1644, 568.001, 0.9875, 3.25565e-11, 1.30226e-06, 0.441631
 1647, 569.001, 0.9875, 3.43696e-11, 1.37478e-06, 0.441631
 1650, 570.001, 0.9875, 3.62791e-11, 1.45116e-06, 0.441631
 1653, 571.001, 0.9875, 3.82898e-11, 1.53159e-06, 0.441631
 1656, 572.001, 0.9875, 4.04067e-11, 1.61627e-06, 0.441631
 1659, 573.001, 0.9875, 4.26353e-11, 1.70541e-06, 0.441631
 1662, 574.001, 0.9875, 4.49811e-11, 1.79924e-06, 0.441631
 1665, 575.001, 0.9875, 4.74499e-11, 1.898e-06, 0.441631
 1668, 576.001, 0.9875, 5.0048e-11, 2.00192e-06, 0.441631
 1671, 577.001, 0.9875, 5.27817e-11, 2.11127e-06, 0.441631
 1674, 578.001, 0.9875, 5.56577e-11, 2.22631e-06, 0.441631
 1677, 579.001, 0.9875, 5.86832e-11, 2.34733e-06, 0.441631
 1680, 580.001, 0.9875, 6.18654e-11, 2.47462e-06, 0.441631
 1683, 581.001, 0.9875, 6.52121e-11, 2.60849e-06, 0.441631
 1686, 582.001, 0.9875, 6.87314e-11, 2.74926e-06, 0.441631
 1689, 583.001, 0.9875, 7.24318e-11, 2.89727e-06, 0.441631
 1692, 584.001, 0.9875, 7.6322e-11, 3.05288e-06, 0.441631
 1695, 585.001, 0.9875, 8.04114e-11, 3.21646e-06, 0.441631
 1698, 586.001, 0.9875, 8.47096e-11, 3.38838e-06, 0.441631
 1701, 587.001, 0.9875, 8.92267e-11, 3.56907e-06, 0.441631
 1704, 588.001, 0.9875, 9.39733e-11, 3.75893e-06, 0.441631
 1707, 589.001, 0.9875, 9.89606e-11, 3.95843e-06, 0.441631
 1710, 590.001, 0.9875, 1.042e-10, 4.168e-06, 0.441631
 1713, 591.001, 0.9875, 1.09704e-10, 4.38815e-06, 0.441631
 1716, 592.001, 0.9875, 1.15485e-10, 4.61938e-06, 0.441631
 1719, 593.001, 0.9875, 1.21556e-10, 4.86222e-06, 0.441631
 1722, 594.001, 0.9875, 1.2793e-10, 5.11722e-06, 0.441631
 1725, 595.001, 0.9875, 1.34624e-10, 5.38496e-06, 0.441631
 1728, 596.001, 0.9875, 1.41651e-10, 5.66604e-06, 0.441631
 1731, 597.001, 0.9875, 1.49027e-10, 5.96109e-06, 0.441631
 1734, 598.001, 0.9875, 1.5677e-10, 6.27078e-06, 0.441631
 1737, 599.001, 0.9875, 1.64895e-10, 6.59579e-06, 0.441631
 1740, 600.001, 0.9875, 1.73421e-10, 6.93685e-06, 0.441631
 1743, 601.001, 0.9875, 1.82367e-10, 7.29469e-06, 0.441631
 1746, 602.001, 0.9875, 1.91753e-10, 7.67012e-06, 0.441631
 1749, 603.001, 0.9875, 2.01599e-10, 8.06394e-06, 0.441631
 1752, 604.001, 0.9875, 2.11926e-10, 8.47702e-06, 0.441631
 1755, 605.001, 0.9875, 2.22756e-10, 8.91024e-06, 0.441631
 1758, 606.001, 0.9875, 2.34114e-10, 9.36455e-06, 0.441631
 1761, 607.001, 0.9875, 2.46022e-10, 9.8409e-06, 0.441631
 1764, 608.001, 0.9875, 2.58508e-10, 1.03403e-05, 0.441631
 1767, 609.001, 0.9875, 2.71596e-10, 1.08639e-05, 0.441631
 1770, 610.001, 0.9875, 2.85316e-10, 1.14126e-05, 0.441631
 1773, 611.001, 0.9875, 2.99695e-10, 1.19878e-05, 0.441631
 1776, 612.001, 0.9875, 3.14764e-10, 1.25905e-05, 0.441631
 1779, 613.001, 0.9875, 3.30553e-10, 1.32221e-05, 0.441631
 1782, 614.001, 0.9875, 3.47097e-10, 1.38839e-05, 0.441631
 1785, 615.001, 0.9875, 3.64428e-10, 1.45771e-05, 0.441631
 1788, 616.001, 0.9875, 3.82583e-10, 1.53033e-05, 0.441631
 1791, 617.001, 0.9875, 4.01598e-10, 1.60639e-05, 0.441631
 1794, 618.001, 0.9875, 4.21513e-10, 1.68605e-05, 0.441631
 1797, 619.001, 0.9875, 4.42367e-10, 1.76947e-05, 0.441631
 1800, 620.001, 0.9875, 4.64203e-10, 1.85681e-05, 0.441631
 1803, 621.001, 0.9875, 4.87064e-10, 1.94826e-05, 0.441631
 1806, 622.001, 0.9875, 5.10996e-10, 2.04398e-05, 0.441631
 1809, 623.001, 0.9875, 5.36047e-10, 2.14419e-05, 0.441631
 1812, 624.001, 0.9875, 5.62265e-10, 2.24906e-05, 0.441631
 1815, 625.001, 0.9875, 5.89704e-10, 2.35882e-05, 0.441631
 1818, 626.001, 0.9875, 6.18415e-10, 2.47366e-05, 0.441631
 1821, 627.001, 0.9875, 6.48457e-10, 2.59383e-05, 0.441631
 1824, 628.001, 0.9875, 6.79886e-10, 2.71954e-05, 0.441631
 1827, 629.001, 0.9875, 7.12763e-10, 2.85105e-05, 0.441631
 1830, 630.001, 0.9875, 7.47152e-10, 2.98861e-05, 0.441631
 1833, 631.001, 0.9875, 7.83119e-10, 3.13248e-05, 0.441631
 1836, 632.001, 0.9875, 8.20732e-10, 3.28293e-05, 0.441631
 1839, 633.001, 0.9875, 8.60062e-10, 3.44025e-05, 0.441631
 1842, 634.001, 0.9875, 9.01184e-10, 3.60474e-05, 0.441631
 1845, 635.001, 0.9875, 9.44175e-10, 3.7767e-05, 0.441631
 1848, 636.001, 0.9875, 9.89116e-10, 3.95646e-05, 0.441631
 1851, 637.001, 0.9875, 1.03609e-09, 4.14436e-05, 0.441631
 1854, 638.001, 0.9875, 1.08518e-09, 4.34073e-05, 0.441631
 1857, 639.001, 0.9875, 1.13649e-09, 4.54595e-05, 0.441631
 1860, 640.001, 0.9875, 1.1901e-09, 4.76039e-05, 0.441631
 1863, 641.001, 0.9875, 1.24611e-09, 4.98445e-05, 0.441631
 1866, 642.001, 0.9875, 1.30463e-09, 5.21852e-05, 0.441631
 1869, 643.001, 0.9875, 1.36576e-09, 5.46304e-05, 0.441631
 1872, 644.001, 0.9875, 1.42961e-09, 5.71844e-05, 0.441631
 1875, 645.001, 0.9875, 1.4963e-09, 5.98519e-05, 0.441631
 1878, 646.001, 0.9875, 1.56594e-09, 6.26377e-05, 0.441631
 1881, 647.001, 0.9875, 1.63866e-09, 6.55466e-05, 0.441631
 1884, 648.001, 0.9875, 1.71459e-09, 6.85838e-05, 0.441631
 1887, 649.001, 0.9875, 1.79387e-09, 7.17547e-05, 0.441631
 1890, 650.001, 0.9875, 1.87662e-09, 7.50648e-05, 0.441631
 1893, 651.001, 0.9875, 1.963e-09, 7.852e-05, 0.441631
 1896, 652.001, 0.9875, 2.05316e-09, 8.21263e-05, 0.441631
 1899, 653.001, 0.9875, 2.14725e-09, 8.58898e-05, 0.441631
 1902, 654.001, 0.9875, 2.24543e-09, 8.98172e-05, 0.441631
 1905, 655.001, 0.9875, 2.34788e-09, 9.3915e-05, 0.441631
 1908, 656.001, 0.9875, 2.45476e-09, 9.81904e-05, 0.441631
 1911, 657.001, 0.9875, 2.56627e-09, 0.000102651, 0.441632
 1914, 658.001, 0.9875, 2.68258e-09, 0.000107303, 0.441631
 1917, 659.001, 0.9875, 2.8039e-09, 0.000112156, 0.441632
 1920, 660.001, 0.9875, 2.93043e-09, 0.000117217, 0.441632
 1923, 661.001, 0.9875, 3.06238e-09, 0.000122495, 0.441632
 1926, 662.001, 0.9875, 3.19996e-09, 0.000127999, 0.441632
 1929, 663.001, 0.9875, 3.34342e-09, 0.000133737, 0.441632
 1932, 664.001, 0.9875, 3.49298e-09, 0.000139719, 0.441632
 1935, 665.001, 0.9875, 3.64889e-09, 0.000145956, 0.441632
 1938, 666.001, 0.9875, 3.81141e-09, 0.000152456, 0.441632
 1941, 667.001, 0.9875, 3.98079e-09, 0.000159232, 0.441632
 1944, 668.001, 0.9875, 4.15732e-09, 0.000166293, 0.441632
 1947, 669.001, 0.9875, 4.34127e-09, 0.000173651, 0.441632
 1950, 670.001, 0.9875, 4.53295e-09, 0.000181318, 0.441632
 1953, 671.001, 0.9875, 4.73266e-09, 0.000189306, 0.441632
 1956, 672.001, 0.9875, 4.94072e-09, 0.000197629, 0.441632
 1959, 673.001, 0.9875, 5.15745e-09, 0.000206298, 0.441632
 1962, 674.001, 0.9875, 5.3832e-09, 0.000215328, 0.441632
 1965, 675.001, 0.9875, 5.61833e-09, 0.000224733, 0.441632
 1968, 676.001, 0.9875, 5.8632e-09, 0.000234528, 0.441632
 1971, 677.001, 0.9875, 6.11819e-09, 0.000244728, 0.441632
 1974, 678.001, 0.9875, 6.3837e-09, 0.000255348, 0.441632
 1977, 679.001, 0.9875, 6.66014e-09, 0.000266406, 0.441632
 1980, 680.001, 0.9875, 6.94793e-09, 0.000277917, 0.441632
 1983, 681.001, 0.9875, 7.24752e-09, 0.000289901, 0.441633
 1986, 682.001, 0.987499, 7.55935e-09, 0.000302374, 0.441633
 1989, 683.001, 0.987499, 7.88391e-09, 0.000315356, 0.441633
 1992, 684.001, 0.987499, 8.22167e-09, 0.000328867, 0.441633
 1995, 685.001, 0.987499, 8.57316e-09, 0.000342927, 0.441633
 1998, 686.001, 0.987499, 8.9389e-09, 0.000357556, 0.441633
 2001, 687.001, 0.987499, 9.31942e-09, 0.000372777, 0.441633
 2004, 688.001, 0.987499, 9.71531e-09, 0.000388612, 0.441633
 2007, 689.001, 0.987499, 1.01271e-08, 0.000405085, 0.441633
 2010, 690.001, 0.987499, 1.05555e-08, 0.00042222, 0.441633
 2013, 691.001, 0.987499, 1.1001e-08, 0.000440042, 0.441633
 2016, 692.001, 0.987499, 1.14644e-08, 0.000458577, 0.441633
 2019, 693.001, 0.987499, 1.19463e-08, 0.000477851, 0.441634
 2022, 694.001, 0.987499, 1.24473e-08, 0.000497893, 0.441634
 2025, 695.001, 0.987499, 1.29683e-08, 0.000518732, 0.441634
 2028, 696.001, 0.987499, 1.35099e-08, 0.000540398, 0.441634
 2031, 697.001, 0.987499, 1.4073e-08, 0.000562921, 0.441634
 2034, 698.001, 0.987499, 1.46583e-08, 0.000586333, 0.441634
 2037, 699.001, 0.987499, 1.52667e-08, 0.000610668, 0.441634
 2040, 700.001, 0.987499, 1.5899e-08, 0.000635959, 0.441635
 2043, 701.001, 0.987499, 1.65561e-08, 0.000662243, 0.441635
 2046, 702.001, 0.987499, 1.72389e-08, 0.000689556, 0.441635
 2049, 703.001, 0.987499, 1.79484e-08, 0.000717936, 0.441635
 2052, 704.001, 0.987499, 1.86855e-08, 0.000747422, 0.441635
 2055, 705.001, 0.987499, 1.94514e-08, 0.000778055, 0.441635
 2058, 706.001, 0.987499, 2.02469e-08, 0.000809877, 0.441636
 2061, 707.001, 0.987499, 2.10733e-08, 0.000842932, 0.441636
 2064, 708.001, 0.987498, 2.19316e-08, 0.000877265, 0.441636
 2067, 709.001, 0.987498, 2.2823e-08, 0.000912921, 0.441636
 2070, 710.001, 0.987498, 2.37488e-08, 0.00094995, 0.441636
 2073, 711.001, 0.987498, 2.471e-08, 0.000988401, 0.441637
 2076, 712.001, 0.987498, 2.57081e-08, 0.00102833, 0.441637
 2079, 713.001, 0.987498, 2.67444e-08, 0.00106978, 0.441637
 2082, 714.001, 0.987498, 2.78202e-08, 0.00111281, 0.441637
 2085, 715.001, 0.987498, 2.8937e-08, 0.00115748, 0.441637
 2088, 716.001, 0.987498, 3.00962e-08, 0.00120385, 0.441638
 2091, 717.001, 0.987498, 3.12994e-08, 0.00125198, 0.441638
 2094, 718.001, 0.987498, 3.25481e-08, 0.00130192, 0.441638
 2097, 719.001, 0.987498, 3.3844e-08, 0.00135376, 0.441639
 2100, 720.001, 0.987497, 3.51887e-08, 0.00140755, 0.441639
 2103, 721.001, 0.987497, 3.65839e-08, 0.00146336, 0.441639
 2106, 722.001, 0.987497, 3.80315e-08, 0.00152126, 0.44164
 2109, 723.001, 0.987497, 3.95333e-08, 0.00158133, 0.44164
 2112, 724.001, 0.987497, 4.10912e-08, 0.00164365, 0.44164
 2115, 725.001, 0.987497, 4.27071e-08, 0.00170829, 0.441641
 2118, 726.001, 0.987497, 4.43832e-08, 0.00177533, 0.441641
 2121, 727.001, 0.987497, 4.61216e-08, 0.00184486, 0.441641
 2124, 728.001, 0.987496, 4.79243e-08, 0.00191697, 0.441642
 2127, 729.001, 0.987496, 4.97937e-08, 0.00199175, 0.441642
 2130, 730.001, 0.987496, 5.17321e-08, 0.00206928, 0.441643
 2133, 731.001, 0.987496, 5.37418e-08, 0.00214967, 0.441643
 2136, 732.001, 0.987496, 5.58254e-08, 0.00223301, 0.441644
 2139, 733.001, 0.987496, 5.79853e-08, 0.00231941, 0.441644
 2142, 734.001, 0.987495, 6.02243e-08, 0.00240897, 0.441644
 2145, 735.001, 0.987495, 6.25451e-08, 0.0025018, 0.441645
 2148, 736.001, 0.987495, 6.49504e-08, 0.00259802, 0.441646
 2151, 737.001, 0.987495, 6.74432e-08, 0.00269773, 0.441646
 2154, 738.001, 0.987495, 7.00264e-08, 0.00280106, 0.441647
 2157, 739.001, 0.987494, 7.27032e-08, 0.00290813, 0.441647
 2160, 740.001, 0.987494, 7.54767e-08, 0.00301907, 0.441648
 2163, 741.001, 0.987494, 7.83502e-08, 0.00313401, 0.441649
 2166, 742.001, 0.987494, 8.13272e-08, 0.00325309, 0.441649
 2169, 743.001, 0.987494, 8.4411e-08, 0.00337644, 0.44165
 2172, 744.001, 0.987493, 8.76054e-08, 0.00350422, 0.441651
 2175, 745.001, 0.987493, 9.0914e-08, 0.00363656, 0.441651
 2178, 746.001, 0.987493, 9.43407e-08, 0.00377363, 0.441652
 2181, 747.001, 0.987492, 9.78895e-08, 0.00391558, 0.441653
 2184, 748.001, 0.987492, 1.01564e-07, 0.00406258, 0.441654
 2187, 749.001, 0.987492, 1.0537e-07, 0.00421479, 0.441655
 2190, 750.001, 0.987491, 1.0931e-07, 0.00437239, 0.441655
 2193, 751.001, 0.987491, 1.13389e-07, 0.00453556, 0.441656
 2196, 752.001, 0.987491, 1.17612e-07, 0.00470448, 0.441657
 2199, 753.001, 0.98749, 1.21983e-07, 0.00487934, 0.441658
 2202, 754.001, 0.98749, 1.26509e-07, 0.00506034, 0.441659
 2205, 755.001, 0.98749, 1.31192e-07, 0.00524769, 0.44166
 2208, 756.001, 0.987489, 1.3604e-07, 0.00544159, 0.441661
 2211, 757.001, 0.987489, 1.41056e-07, 0.00564225, 0.441663
 2214, 758.001, 0.987488, 1.46248e-07, 0.0058499, 0.441664
 2217, 759.001, 0.987488, 1.51619e-07, 0.00606477, 0.441665
 2220, 760.001, 0.987488, 1.57177e-07, 0.0062871, 0.441666
 2223, 761.001, 0.987487, 1.62928e-07, 0.00651712, 0.441668
 2226, 762.001, 0.987487, 1.68877e-07, 0.00675508, 0.441669
 2229, 763.001, 0.987486, 1.75031e-07, 0.00700125, 0.44167
 2232, 764.001, 0.987486, 1.81397e-07, 0.00725589, 0.441672
 2235, 765.001, 0.987485, 1.87982e-07, 0.00751928, 0.441673
 2238, 766.001, 0.987484, 1.94792e-07, 0.00779169, 0.441675
 2241, 767.001, 0.987484, 2.01835e-07, 0.00807341, 0.441676
 2244, 768.001, 0.987483, 2.09119e-07, 0.00836475, 0.441678
 2247, 769.001, 0.987483, 2.1665e-07, 0.00866602, 0.441679
 2250, 770.001, 0.987482, 2.24438e-07, 0.00897752, 0.441681
 2253, 771.001, 0.987481, 2.3249e-07, 0.0092996, 0.441683
 2256, 772.001, 0.98748, 2.40814e-07, 0.00963258, 0.441685
 2259, 773.001, 0.98748, 2.4942e-07, 0.00997681, 0.441687
 2262, 774.001, 0.987479, 2.58316e-07, 0.0103326, 0.441689
 2265, 775.001, 0.987478, 2.67511e-07, 0.0107005, 0.441691
 2268, 776.001, 0.987477, 2.77016e-07, 0.0110806, 0.441693
 2271, 777.001, 0.987477, 2.86838e-07, 0.0114735, 0.441695
 2274, 778.001, 0.987476, 2.9699e-07, 0.0118796, 0.441697
 2277, 779.001, 0.987475, 3.0748e-07, 0.0122992, 0.4417
 2280, 780.001, 0.987474, 3.1832e-07, 0.0127328, 0.441702
 2283, 781.001, 0.987473, 3.2952e-07, 0.0131808, 0.441704
 2286, 782.001, 0.987472, 3.41092e-07, 0.0136437, 0.441707
 2289, 783.001, 0.987471, 3.53047e-07, 0.0141219, 0.44171
 2292, 784.001, 0.98747, 3.65398e-07, 0.0146159, 0.441712
 2295, 785.001, 0.987469, 3.78156e-07, 0.0151262, 0.441715
 2298, 786.001, 0.987467, 3.91334e-07, 0.0156534, 0.441718
 2301, 787.001, 0.987466, 4.04945e-07, 0.0161978, 0.441721
 2304, 788.001, 0.987465, 4.19002e-07, 0.0167601, 0.441724
 2307, 789.001, 0.987464, 4.3352e-07, 0.0173408, 0.441727
 2310, 790.001, 0.987462, 4.48512e-07, 0.0179405, 0.441731
 2313, 791.001, 0.987461, 4.63992e-07, 0.0185597, 0.441734
 2316, 792.001, 0.98746, 4.79977e-07, 0.0191991, 0.441738
 2319, 793.001, 0.987458, 4.9648e-07, 0.0198592, 0.441741
 2322, 794.001, 0.987457, 5.13518e-07, 0.0205407, 0.441745
 2325, 795.001, 0.987455, 5.31107e-07, 0.0212443, 0.441749
 2328, 796.001, 0.987453, 5.49265e-07, 0.0219706, 0.441753
 2331, 797.001, 0.987452, 5.68007e-07, 0.0227203, 0.441757
 2334, 798.001, 0.98745, 5.87352e-07, 0.0234941, 0.441761
 2337, 799.001, 0.987448, 6.07318e-07, 0.0242927, 0.441766
 2340, 800.001, 0.987446, 6.27923e-07, 0.0251169, 0.44177