File: examples/Birch_TGA_Example/Work/Cone_zba3hngy/birch_tga_1step_5_tga.csv
s,C,g/g,1/s,W/g,W/g
Time,Temp,Mass,MLR,MCC,DSC
 12, 21.0003, 0.999993, 6.11641e-07, 0.0000000E+000, 0.121505
 24, 22.0003, 0.999985, 7.02365e-07, 0.0000000E+000, 0.121708
 36, 23.0003, 0.999976, 8.05766e-07, 0.0000000E+000, 0.121938
 48, 24.0003, 0.999966, 9.23498e-07, 0.0000000E+000, 0.122201
 60, 25.0003, 0.999954, 1.05742e-06, 0.0000000E+000, 0.1225
 72, 26.0003, 0.99994, 1.2096e-06, 0.0000000E+000, 0.12284
 84, 27.0003, 0.999925, 1.38236e-06, 0.0000000E+000, 0.123225
 96, 28.0003, 0.999907, 1.57829e-06, 0.0000000E+000, 0.123662
 108, 29.0003, 0.999887, 1.80028e-06, 0.0000000E+000, 0.124158
 120, 30.0003, 0.999864, 2.05153e-06, 0.0000000E+000, 0.124718
 132, 31.0003, 0.999838, 2.33562e-06, 0.0000000E+000, 0.125352
 144, 32.0003, 0.999808, 2.65649e-06, 0.0000000E+000, 0.126067
 156, 33.0003, 0.999774, 3.01853e-06, 0.0000000E+000, 0.126875
 168, 34.0003, 0.999735, 3.42658e-06, 0.0000000E+000, 0.127785
 180, 35.0003, 0.999691, 3.88597e-06, 0.0000000E+000, 0.128809
 192, 36.0003, 0.999641, 4.40258e-06, 0.0000000E+000, 0.12996
 204, 37.0003, 0.999585, 4.98285e-06, 0.0000000E+000, 0.131254
 216, 38.0003, 0.999522, 5.63384e-06, 0.0000000E+000, 0.132705
 228, 39.0003, 0.99945, 6.36325e-06, 0.0000000E+000, 0.13433
 240, 40.0003, 0.999369, 7.17944e-06, 0.0000000E+000, 0.136149
 252, 41.0003, 0.999277, 8.09149e-06, 0.0000000E+000, 0.13818
 264, 42.0003, 0.999174, 9.10918e-06, 0.0000000E+000, 0.140447
 276, 43.0003, 0.999058, 1.0243e-05, 0.0000000E+000, 0.142972
 288, 44.0003, 0.998928, 1.15042e-05, 0.0000000E+000, 0.145781
 300, 45.0003, 0.998781, 1.29047e-05, 0.0000000E+000, 0.148898
 312, 46.0003, 0.998617, 1.4457e-05, 0.0000000E+000, 0.152354
 324, 47.0003, 0.998434, 1.61741e-05, 0.0000000E+000, 0.156175
 336, 48.0003, 0.998228, 1.80696e-05, 0.0000000E+000, 0.160392
 348, 49.0003, 0.997999, 2.01572e-05, 1.50601e-38, 0.165036
 360, 50.0003, 0.997744, 2.24507e-05, 2.17766e-38, 0.170136
 372, 51.0003, 0.997459, 2.49637e-05, 3.14171e-38, 0.175724
 384, 52.0003, 0.997144, 2.77091e-05, 4.52233e-38, 0.181825
 396, 53.0003, 0.996793, 3.06987e-05, 6.49513e-38, 0.188468
 408, 54.0003, 0.996406, 3.39427e-05, 9.30791e-38, 0.195673
 420, 55.0003, 0.995978, 3.74491e-05, 1.33096e-37, 0.203458
 432, 56.0003, 0.995506, 4.12227e-05, 1.89903e-37, 0.211832
 444, 57.0003, 0.994987, 4.52644e-05, 2.70375e-37, 0.220796
 456, 58.0003, 0.994418, 4.95698e-05, 3.84125e-37, 0.230339
 468, 59.0003, 0.993797, 5.41286e-05, 5.44578e-37, 0.240437
 480, 60.0003, 0.993118, 5.89226e-05, 7.70439e-37, 0.251048
 492, 61.0003, 0.992381, 6.39249e-05, 1.08771e-36, 0.262109
 504, 62.0003, 0.991583, 6.90982e-05, 1.53249e-36, 0.273537
 516, 63.0003, 0.990723, 7.43934e-05, 2.15473e-36, 0.285217
 528, 64.0003, 0.989798, 7.97484e-05, 3.02351e-36, 0.297011
 540, 65.0002, 0.988809, 8.50867e-05, 4.23409e-36, 0.308745
 552, 66.0002, 0.987756, 9.03173e-05, 5.91761e-36, 0.320212
 564, 67.0002, 0.986642, 9.53341e-05, 8.25425e-36, 0.331174
 576, 68.0002, 0.985469, 0.000100017, 1.14911e-35, 0.341359
 588, 69.0002, 0.984243, 0.000104232, 1.59663e-35, 0.350468
 600, 70.0002, 0.98297, 0.000107836, 2.2142e-35, 0.358179
 612, 71.0002, 0.981658, 0.000110681, 3.06481e-35, 0.364157
 624, 72.0002, 0.980317, 0.000112618, 4.23421e-35, 0.36807
 636, 73.0002, 0.97896, 0.000113505, 5.83889e-35, 0.369604
 648, 74.0002, 0.977598, 0.000113219, 8.03682e-35, 0.368478
 660, 75.0002, 0.976247, 0.000111658, 1.10418e-34, 0.364475
 672, 76.0002, 0.974924, 0.000108763, 1.51429e-34, 0.35746
 684, 77.0002, 0.973643, 0.000104517, 2.07297e-34, 0.347403
 696, 78.0002, 0.97242, 9.89605e-05, 2.83269e-34, 0.334403
 708, 79.0002, 0.971272, 9.21961e-05, 3.864e-34, 0.318694
 720, 80.0003, 0.970212, 8.43899e-05, 5.26151e-34, 0.300659
 732, 81.0003, 0.96925, 7.57684e-05, 7.152e-34, 0.280815
 744, 82.0003, 0.968396, 6.66095e-05, 9.70496e-34, 0.259791
 756, 83.0003, 0.967653, 5.72266e-05, 1.31467e-33, 0.2383
 768, 84.0003, 0.967022, 4.7947e-05, 1.77787e-33, 0.217083
 780, 85.0003, 0.9665, 3.90874e-05, 2.40022e-33, 0.196853
 792, 86.0003, 0.966081, 3.09276e-05, 3.23501e-33, 0.178244
 804, 87.0003, 0.965755, 2.36877e-05, 4.35292e-33, 0.161749
 816, 88.0003, 0.965509, 1.75105e-05, 5.84753e-33, 0.147686
 828, 89.0003, 0.96533, 1.24535e-05, 7.84252e-33, 0.136181
 840, 90.0003, 0.965205, 8.49205e-06, 1.05011e-32, 0.127175
 852, 91.0004, 0.965122, 5.53148e-06, 1.40385e-32, 0.120447
 864, 92.0004, 0.965069, 3.42787e-06, 1.87376e-32, 0.11567
 876, 93.0004, 0.965037, 2.01216e-06, 2.49703e-32, 0.112455
 888, 94.0004, 0.965019, 1.11352e-06, 3.32241e-32, 0.110416
 900, 95.0004, 0.965009, 5.77975e-07, 4.41375e-32, 0.109201
 912, 96.0004, 0.965004, 2.79825e-07, 5.85457e-32, 0.108525
 924, 97.0004, 0.965002, 1.25613e-07, 7.75388e-32, 0.108175
 936, 98.0004, 0.965001, 5.19441e-08, 1.02538e-31, 0.108008
 948, 99.0004, 0.965, 1.965e-08, 1.35394e-31, 0.107935
 960, 100, 0.965, 6.74893e-09, 1.78512e-31, 0.107906
 972, 101, 0.965, 2.08746e-09, 2.35014e-31, 0.107895
 984, 102, 0.965, 5.76366e-10, 3.08945e-31, 0.107892
 996, 103, 0.965, 1.40723e-10, 4.05545e-31, 0.107891
 1008, 104, 0.965, 3.00736e-11, 5.31581e-31, 0.10789
 1020, 105, 0.965, 5.56399e-12, 6.9579e-31, 0.10789
 1032, 106, 0.965, 8.80702e-13, 9.09433e-31, 0.10789
 1044, 107, 0.965, 1.17755e-13, 1.187e-30, 0.10789
 1056, 108, 0.965, 1.31184e-14, 1.54712e-30, 0.10789
 1068, 109, 0.965, 1.19987e-15, 2.01371e-30, 0.10789
 1080, 110, 0.965, 8.86853e-17, 2.6174e-30, 0.10789
 1092, 111, 0.965, 5.20756e-18, 3.39743e-30, 0.10789
 1104, 112, 0.965, 2.38524e-19, 4.40396e-30, 0.10789
 1116, 113, 0.965, 8.35617e-21, 5.70101e-30, 0.10789
 1128, 114, 0.965, 2.19227e-22, 7.37024e-30, 0.10789
 1140, 115, 0.965, 4.21071e-24, 9.51562e-30, 0.10789
 1152, 116, 0.965, 5.77881e-26, 1.22694e-29, 0.10789
 1164, 117, 0.965, 5.52112e-28, 1.57994e-29, 0.10789
 1176, 118, 0.965, 3.57149e-30, 2.03188e-29, 0.10789
 1188, 119, 0.965, 1.5827e-32, 2.60975e-29, 0.10789
 1200, 120, 0.965, 8.77952e-34, 3.3477e-29, 0.10789
 1212, 121, 0.965, 1.07229e-33, 4.28889e-29, 0.10789
 1224, 122, 0.965, 1.37195e-33, 5.4878e-29, 0.10789
 1236, 123, 0.965, 1.75328e-33, 7.01313e-29, 0.10789
 1248, 124, 0.965, 2.23784e-33, 8.95136e-29, 0.10789
 1260, 125, 0.965, 2.85282e-33, 1.14113e-28, 0.10789
 1272, 126, 0.965, 3.63237e-33, 1.45295e-28, 0.10789
 1284, 127, 0.965, 4.61936e-33, 1.84774e-28, 0.10789
 1296, 128, 0.965, 5.86751e-33, 2.347e-28, 0.10789
 1308, 129, 0.965, 7.44404e-33, 2.97761e-28, 0.10789
 1320, 130, 0.965, 9.43302e-33, 3.77321e-28, 0.10789
 1332, 131, 0.965, 1.19394e-32, 4.77578e-28, 0.10789
 1344, 132, 0.965, 1.50943e-32, 6.03771e-28, 0.10789
 1356, 133, 0.965, 1.90607e-32, 7.62428e-28, 0.10789
 1368, 134, 0.965, 2.40418e-32, 9.61674e-28, 0.10789
 1380, 135, 0.965, 3.02902e-32, 1.21161e-27, 0.10789
 1392, 136, 0.965, 3.81195e-32, 1.52478e-27, 0.10789
 1404, 137, 0.965, 4.79186e-32, 1.91675e-27, 0.10789
 1416, 138, 0.965, 6.01698e-32, 2.40679e-27, 0.10789
 1428, 139, 0.965, 7.54698e-32, 3.01879e-27, 0.10789
 1440, 140, 0.965, 9.45565e-32, 3.78226e-27, 0.10789
 1452, 141, 0.965, 1.18341e-31, 4.73365e-27, 0.10789
 1464, 142, 0.965, 1.47949e-31, 5.91796e-27, 0.10789
 1476, 143, 0.965, 1.84766e-31, 7.39064e-27, 0.10789
 1488, 144, 0.965, 2.30499e-31, 9.21996e-27, 0.10789
 1500, 145, 0.965, 2.87248e-31, 1.14899e-26, 0.10789
 1512, 146, 0.965, 3.57592e-31, 1.43037e-26, 0.10789
 1524, 147, 0.965, 4.447e-31, 1.7788e-26, 0.10789
 1536, 148, 0.965, 5.52454e-31, 2.20982e-26, 0.10789
 1548, 149, 0.965, 6.85612e-31, 2.74245e-26, 0.10789
 1560, 150, 0.965, 8.49998e-31, 3.39999e-26, 0.10789
 1572, 151, 0.965, 1.05273e-30, 4.21092e-26, 0.10789
 1584, 152, 0.965, 1.30251e-30, 5.21002e-26, 0.10789
 1596, 153, 0.965, 1.60993e-30, 6.43973e-26, 0.10789
 1608, 154, 0.965, 1.98795e-30, 7.9518e-26, 0.10789
 1620, 155, 0.965, 2.45231e-30, 9.80923e-26, 0.10789
 1632, 156, 0.965, 3.02217e-30, 1.20887e-25, 0.10789
 1644, 157, 0.965, 3.72085e-30, 1.48834e-25, 0.10789
 1656, 158, 0.965, 4.57663e-30, 1.83065e-25, 0.10789
 1668, 159, 0.965, 5.62385e-30, 2.24954e-25, 0.10789
 1680, 160, 0.965, 6.90412e-30, 2.76165e-25, 0.10789
 1692, 161, 0.965, 8.46783e-30, 3.38713e-25, 0.10789
 1704, 162, 0.965, 1.0376e-29, 4.15039e-25, 0.10789
 1716, 163, 0.965, 1.27023e-29, 5.0809e-25, 0.10789
 1728, 164, 0.965, 1.55357e-29, 6.21428e-25, 0.10789
 1740, 165, 0.965, 1.89837e-29, 7.59349e-25, 0.10789
 1752, 166, 0.965, 2.31759e-29, 9.27034e-25, 0.10789
 1764, 167, 0.965, 2.82681e-29, 1.13072e-24, 0.10789
 1776, 168, 0.965, 3.44482e-29, 1.37793e-24, 0.10789
 1788, 169, 0.965, 4.19418e-29, 1.67767e-24, 0.10789
 1800, 170, 0.965, 5.10202e-29, 2.04081e-24, 0.10789
 1812, 171, 0.965, 6.2009e-29, 2.48036e-24, 0.10789
 1824, 172, 0.965, 7.52984e-29, 3.01194e-24, 0.10789
 1836, 173, 0.965, 9.13565e-29, 3.65426e-24, 0.10789
 1848, 174, 0.965, 1.10743e-28, 4.42973e-24, 0.10789
 1860, 175, 0.965, 1.34129e-28, 5.36516e-24, 0.10789
 1872, 176, 0.965, 1.62314e-28, 6.49258e-24, 0.10789
 1884, 177, 0.965, 1.96256e-28, 7.85025e-24, 0.10789
 1896, 178, 0.965, 2.37096e-28, 9.48384e-24, 0.10789
 1908, 179, 0.965, 2.86195e-28, 1.14478e-23, 0.10789
 1920, 180, 0.965, 3.45175e-28, 1.3807e-23, 0.10789
 1932, 181, 0.965, 4.15966e-28, 1.66386e-23, 0.10789
 1944, 182, 0.965, 5.00864e-28, 2.00346e-23, 0.10789
 1956, 183, 0.965, 6.026e-28, 2.4104e-23, 0.10789
 1968, 184, 0.965, 7.24414e-28, 2.89766e-23, 0.10789
 1980, 185, 0.965, 8.70152e-28, 3.48061e-23, 0.10789
 1992, 186, 0.965, 1.04438e-27, 4.17751e-23, 0.10789
 2004, 187, 0.965, 1.25249e-27, 5.00996e-23, 0.10789
 2016, 188, 0.965, 1.50089e-27, 6.00357e-23, 0.10789
 2028, 189, 0.965, 1.79715e-27, 7.1886e-23, 0.10789
 2040, 190, 0.965, 2.15021e-27, 8.60085e-23, 0.10789
 2052, 191, 0.965, 2.57065e-27, 1.02826e-22, 0.10789
 2064, 192, 0.965, 3.07094e-27, 1.22837e-22, 0.10789
 2076, 193, 0.965, 3.66579e-27, 1.46632e-22, 0.10789
 2088, 194, 0.965, 4.37255e-27, 1.74902e-22, 0.10789
 2100, 195, 0.965, 5.21165e-27, 2.08466e-22, 0.10789
 2112, 196, 0.965, 6.20712e-27, 2.48285e-22, 0.10789
 2124, 197, 0.965, 7.38725e-27, 2.9549e-22, 0.10789
 2136, 198, 0.965, 8.78525e-27, 3.5141e-22, 0.10789
 2148, 199, 0.965, 1.04402e-26, 4.17606e-22, 0.10789
 2160, 200, 0.965, 1.23977e-26, 4.9591e-22, 0.10789
 2172, 201, 0.965, 1.47117e-26, 5.88469e-22, 0.10789
 2184, 202, 0.965, 1.7445e-26, 6.97801e-22, 0.10789
 2196, 203, 0.965, 2.06714e-26, 8.26854e-22, 0.10789
 2208, 204, 0.965, 2.4477e-26, 9.79078e-22, 0.10789
 2220, 205, 0.965, 2.89627e-26, 1.15851e-21, 0.10789
 2232, 206, 0.965, 3.42464e-26, 1.36986e-21, 0.10789
 2244, 207, 0.965, 4.04658e-26, 1.61863e-21, 0.10789
 2256, 208, 0.965, 4.77816e-26, 1.91126e-21, 0.10789
 2268, 209, 0.965, 5.6381e-26, 2.25524e-21, 0.10789
 2280, 210, 0.965, 6.64826e-26, 2.6593e-21, 0.10789
 2292, 211, 0.965, 7.83407e-26, 3.13363e-21, 0.10789
 2304, 212, 0.965, 9.22514e-26, 3.69006e-21, 0.10789
 2316, 213, 0.965, 1.08559e-25, 4.34237e-21, 0.10789
 2328, 214, 0.965, 1.27664e-25, 5.10657e-21, 0.10789
 2340, 215, 0.965, 1.50032e-25, 6.00129e-21, 0.10789
 2352, 216, 0.965, 1.76203e-25, 7.04811e-21, 0.10789
 2364, 217, 0.965, 2.06803e-25, 8.2721e-21, 0.10789
 2376, 218, 0.965, 2.42558e-25, 9.70233e-21, 0.10789
 2388, 219, 0.965, 2.84312e-25, 1.13725e-20, 0.10789
 2400, 220, 0.965, 3.33038e-25, 1.33215e-20, 0.10789
 2412, 221, 0.965, 3.89865e-25, 1.55946e-20, 0.10789
 2424, 222, 0.965, 4.56098e-25, 1.82439e-20, 0.10789
 2436, 223, 0.965, 5.33247e-25, 2.13299e-20, 0.10789
 2448, 224, 0.965, 6.23053e-25, 2.49221e-20, 0.10789
 2460, 225, 0.965, 7.27529e-25, 2.91012e-20, 0.10789
 2472, 226, 0.965, 8.48997e-25, 3.39599e-20, 0.10789
 2484, 227, 0.965, 9.90132e-25, 3.96053e-20, 0.10789
 2496, 228, 0.965, 1.15402e-24, 4.61609e-20, 0.10789
 2508, 229, 0.965, 1.34422e-24, 5.37688e-20, 0.10789
 2520, 230, 0.965, 1.56481e-24, 6.25926e-20, 0.10789
 2532, 231, 0.965, 1.82051e-24, 7.28205e-20, 0.10789
 2544, 232, 0.965, 2.11672e-24, 8.46689e-20, 0.10789
 2556, 233, 0.965, 2.45966e-24, 9.83866e-20, 0.10789
 2568, 234, 0.965, 2.85648e-24, 1.14259e-19, 0.10789
 2580, 235, 0.965, 3.31535e-24, 1.32614e-19, 0.10789
 2592, 236, 0.965, 3.84569e-24, 1.53828e-19, 0.10789
 2604, 237, 0.965, 4.45827e-24, 1.78331e-19, 0.10789
 2616, 238, 0.965, 5.16544e-24, 2.06618e-19, 0.10789
 2628, 239, 0.965, 5.98134e-24, 2.39254e-19, 0.10789
 2640, 240, 0.965, 6.92217e-24, 2.76887e-19, 0.10789
 2652, 241, 0.965, 8.00642e-24, 3.20257e-19, 0.10789
 2664, 242, 0.965, 9.25527e-24, 3.70211e-19, 0.10789
 2676, 243, 0.965, 1.06929e-23, 4.27717e-19, 0.10789
 2688, 244, 0.965, 1.2347e-23, 4.93879e-19, 0.10789
 2700, 245, 0.965, 1.4249e-23, 5.6996e-19, 0.10789
 2712, 246, 0.965, 1.64349e-23, 6.57397e-19, 0.10789
 2724, 247, 0.965, 1.89458e-23, 7.57833e-19, 0.10789
 2736, 248, 0.965, 2.18284e-23, 8.73136e-19, 0.10789
 2748, 249, 0.965, 2.51359e-23, 1.00544e-18, 0.10789
 2760, 250, 0.965, 2.8929e-23, 1.15716e-18, 0.10789
 2772, 251, 0.965, 3.32766e-23, 1.33106e-18, 0.10789
 2784, 252, 0.965, 3.82572e-23, 1.53029e-18, 0.10789
 2796, 253, 0.965, 4.39599e-23, 1.7584e-18, 0.10789
 2808, 254, 0.965, 5.04861e-23, 2.01944e-18, 0.10789
 2820, 255, 0.965, 5.79507e-23, 2.31803e-18, 0.10789
 2832, 256, 0.965, 6.64844e-23, 2.65938e-18, 0.10789
 2844, 257, 0.965, 7.62352e-23, 3.04941e-18, 0.10789
 2856, 258, 0.965, 8.73711e-23, 3.49484e-18, 0.10789
 2868, 259, 0.965, 1.00082e-22, 4.00329e-18, 0.10789
 2880, 260, 0.965, 1.14584e-22, 4.58337e-18, 0.10789
 2892, 261, 0.965, 1.31121e-22, 5.24485e-18, 0.10789
 2904, 262, 0.965, 1.49969e-22, 5.99878e-18, 0.10789
 2916, 263, 0.965, 1.71441e-22, 6.85764e-18, 0.10789
 2928, 264, 0.965, 1.95889e-22, 7.83556e-18, 0.10789
 2940, 265, 0.965, 2.23712e-22, 8.9485e-18, 0.10789
 2952, 266, 0.965, 2.55362e-22, 1.02145e-17, 0.10789
 2964, 267, 0.965, 2.91347e-22, 1.16539e-17, 0.10789
 2976, 268, 0.965, 3.3224e-22, 1.32896e-17, 0.10789
 2988, 269, 0.965, 3.78689e-22, 1.51476e-17, 0.10789
 3000, 270, 0.965, 4.31425e-22, 1.7257e-17, 0.10789
 3012, 271, 0.965, 4.91269e-22, 1.96508e-17, 0.10789
 3024, 272, 0.965, 5.59148e-22, 2.23659e-17, 0.10789
 3036, 273, 0.965, 6.36104e-22, 2.54441e-17, 0.10789
 3048, 274, 0.965, 7.2331e-22, 2.89324e-17, 0.10789
 3060, 275, 0.965, 8.22086e-22, 3.28835e-17, 0.10789
 3072, 276, 0.965, 9.33916e-22, 3.73567e-17, 0.10789
 3084, 277, 0.965, 1.06047e-21, 4.24187e-17, 0.10789
 3096, 278, 0.965, 1.20361e-21, 4.81444e-17, 0.10789
 3108, 279, 0.965, 1.36545e-21, 5.4618e-17, 0.10789
 3120, 280, 0.965, 1.54834e-21, 6.19337e-17, 0.10789
 3132, 281, 0.965, 1.75494e-21, 7.01975e-17, 0.10789
 3144, 282, 0.965, 1.9882e-21, 7.95281e-17, 0.10789
 3156, 283, 0.965, 2.25146e-21, 9.00584e-17, 0.10789
 3168, 284, 0.965, 2.54844e-21, 1.01938e-16, 0.10789
 3180, 285, 0.965, 2.88331e-21, 1.15332e-16, 0.10789
 3192, 286, 0.965, 3.26074e-21, 1.3043e-16, 0.10789
 3204, 287, 0.965, 3.68596e-21, 1.47438e-16, 0.10789
 3216, 288, 0.965, 4.16481e-21, 1.66593e-16, 0.10789
 3228, 289, 0.965, 4.70383e-21, 1.88153e-16, 0.10789
 3240, 290, 0.965, 5.31031e-21, 2.12412e-16, 0.10789
 3252, 291, 0.965, 5.99241e-21, 2.39696e-16, 0.10789
 3264, 292, 0.965, 6.75923e-21, 2.70369e-16, 0.10789
 3276, 293, 0.965, 7.62094e-21, 3.04838e-16, 0.10789
 3288, 294, 0.965, 8.58887e-21, 3.43555e-16, 0.10789
 3300, 295, 0.965, 9.67566e-21, 3.87026e-16, 0.10789
 3312, 296, 0.965, 1.08954e-20, 4.35816e-16, 0.10789
 3324, 297, 0.965, 1.22638e-20, 4.90552e-16, 0.10789
 3336, 298, 0.965, 1.37983e-20, 5.51934e-16, 0.10789
 3348, 299, 0.965, 1.55185e-20, 6.20741e-16, 0.10789
 3360, 300, 0.965, 1.7446e-20, 6.97839e-16, 0.10789
 3372, 301, 0.965, 1.96048e-20, 7.84193e-16, 0.10789
 3384, 302, 0.965, 2.20219e-20, 8.80875e-16, 0.10789
 3396, 303, 0.965, 2.4727e-20, 9.89079e-16, 0.10789
 3408, 304, 0.965, 2.77532e-20, 1.11013e-15, 0.10789
 3420, 305, 0.965, 3.11373e-20, 1.24549e-15, 0.10789
 3432, 306, 0.965, 3.49202e-20, 1.39681e-15, 0.10789
 3444, 307, 0.965, 3.91473e-20, 1.56589e-15, 0.10789
 3456, 308, 0.965, 4.38687e-20, 1.75475e-15, 0.10789
 3468, 309, 0.965, 4.91404e-20, 1.96562e-15, 0.10789
 3480, 310, 0.965, 5.50242e-20, 2.20097e-15, 0.10789
 3492, 311, 0.965, 6.15885e-20, 2.46354e-15, 0.10789
 3504, 312, 0.965, 6.89095e-20, 2.75638e-15, 0.10789
 3516, 313, 0.965, 7.70711e-20, 3.08285e-15, 0.10789
 3528, 314, 0.965, 8.61666e-20, 3.44666e-15, 0.10789
 3540, 315, 0.965, 9.62989e-20, 3.85195e-15, 0.10789
 3552, 316, 0.965, 1.07582e-19, 4.30328e-15, 0.10789
 3564, 317, 0.965, 1.20142e-19, 4.80568e-15, 0.10789
 3576, 318, 0.965, 1.34118e-19, 5.36473e-15, 0.10789
 3588, 319, 0.965, 1.49665e-19, 5.9866e-15, 0.10789
 3600, 320, 0.965, 1.66952e-19, 6.67807e-15, 0.10789
 3612, 321, 0.965, 1.86167e-19, 7.44667e-15, 0.10789
 3624, 322, 0.965, 2.07518e-19, 8.3007e-15, 0.10789
 3636, 323, 0.965, 2.31232e-19, 9.2493e-15, 0.10789
 3648, 324, 0.965, 2.57564e-19, 1.03026e-14, 0.10789
 3660, 325, 0.965, 2.86791e-19, 1.14716e-14, 0.10789
 3672, 326, 0.965, 3.1922e-19, 1.27688e-14, 0.10789
 3684, 327, 0.965, 3.55189e-19, 1.42076e-14, 0.10789
 3696, 328, 0.965, 3.9507e-19, 1.58028e-14, 0.10789
 3708, 329, 0.965, 4.39274e-19, 1.7571e-14, 0.10789
 3720, 330, 0.965, 4.88253e-19, 1.95301e-14, 0.10789
 3732, 331, 0.965, 5.42502e-19, 2.17001e-14, 0.10789
 3744, 332, 0.965, 6.02569e-19, 2.41028e-14, 0.10789
 3756, 333, 0.965, 6.69056e-19, 2.67622e-14, 0.10789
 3768, 334, 0.965, 7.42622e-19, 2.97049e-14, 0.10789
 3780, 335, 0.965, 8.23994e-19, 3.29598e-14, 0.10789
 3792, 336, 0.965, 9.1397e-19, 3.65588e-14, 0.10789
 3804, 337, 0.965, 1.01343e-18, 4.05371e-14, 0.10789
 3816, 338, 0.965, 1.12333e-18, 4.49331e-14, 0.10789
 3828, 339, 0.965, 1.24473e-18, 4.97891e-14, 0.10789
 3840, 340, 0.965, 1.37878e-18, 5.51514e-14, 0.10789
 3852, 341, 0.965, 1.52677e-18, 6.10709e-14, 0.10789
 3864, 342, 0.965, 1.69008e-18, 6.76033e-14, 0.10789
 3876, 343, 0.965, 1.87024e-18, 7.48098e-14, 0.10789
 3888, 344, 0.965, 2.06893e-18, 8.27573e-14, 0.10789
 3900, 345, 0.965, 2.28798e-18, 9.15192e-14, 0.10789
 3912, 346, 0.965, 2.5294e-18, 1.01176e-13, 0.10789
 3924, 347, 0.965, 2.79538e-18, 1.11815e-13, 0.10789
 3936, 348, 0.965, 3.08834e-18, 1.23534e-13, 0.10789
 3948, 349, 0.965, 3.41092e-18, 1.36437e-13, 0.10789
 3960, 350, 0.965, 3.76598e-18, 1.50639e-13, 0.10789
 3972, 351, 0.965, 4.15669e-18, 1.66267e-13, 0.10789
 3984, 352, 0.965, 4.58648e-18, 1.83459e-13, 0.10789
 3996, 353, 0.965, 5.05911e-18, 2.02365e-13, 0.10789
 4008, 354, 0.965, 5.57871e-18, 2.23149e-13, 0.10789
 4020, 355, 0.965, 6.14976e-18, 2.45991e-13, 0.10789
 4032, 356, 0.965, 6.77717e-18, 2.71087e-13, 0.10789
 4044, 357, 0.965, 7.46628e-18, 2.98651e-13, 0.10789
 4056, 358, 0.965, 8.22294e-18, 3.28918e-13, 0.10789
 4068, 359, 0.965, 9.05351e-18, 3.62141e-13, 0.10789
 4080, 360, 0.965, 9.96495e-18, 3.98598e-13, 0.10789
 4092, 361, 0.965, 1.09648e-17, 4.38593e-13, 0.10789
 4104, 362, 0.965, 1.20614e-17, 4.82456e-13, 0.10789
 4116, 363, 0.965, 1.32637e-17, 5.30547e-13, 0.10789
 4128, 364, 0.965, 1.45814e-17, 5.83257e-13, 0.10789
 4140, 365, 0.965, 1.60253e-17, 6.41013e-13, 0.10789
 4152, 366, 0.965, 1.7607e-17, 7.04281e-13, 0.10789
 4164, 367, 0.965, 1.93391e-17, 7.73566e-13, 0.10789
 4176, 368, 0.965, 2.12355e-17, 8.49418e-13, 0.10789
 4188, 369, 0.965, 2.33109e-17, 9.32436e-13, 0.10789
 4200, 370, 0.965, 2.55818e-17, 1.02327e-12, 0.10789
 4212, 371, 0.965, 2.80658e-17, 1.12263e-12, 0.10789
 4224, 372, 0.965, 3.07821e-17, 1.23129e-12, 0.10789
 4236, 373, 0.965, 3.37517e-17, 1.35007e-12, 0.10789
 4248, 374, 0.965, 3.69973e-17, 1.47989e-12, 0.10789
 4260, 375, 0.965, 4.05434e-17, 1.62174e-12, 0.10789
 4272, 376, 0.965, 4.4417e-17, 1.77668e-12, 0.10789
 4284, 377, 0.965, 4.86469e-17, 1.94588e-12, 0.10789
 4296, 378, 0.965, 5.32648e-17, 2.13059e-12, 0.10789
 4308, 379, 0.965, 5.83048e-17, 2.33219e-12, 0.10789
 4320, 380, 0.965, 6.38041e-17, 2.55216e-12, 0.10789
 4332, 381, 0.965, 6.98028e-17, 2.79211e-12, 0.10789
 4344, 382, 0.965, 7.63446e-17, 3.05378e-12, 0.10789
 4356, 383, 0.965, 8.34766e-17, 3.33906e-12, 0.10789
 4368, 384, 0.965, 9.12501e-17, 3.65e-12, 0.10789
 4380, 385, 0.965, 9.97205e-17, 3.98882e-12, 0.10789
 4392, 386, 0.965, 1.08948e-16, 4.35791e-12, 0.10789
 4404, 387, 0.965, 1.18997e-16, 4.75988e-12, 0.10789
 4416, 388, 0.965, 1.29938e-16, 5.19754e-12, 0.10789
 4428, 389, 0.965, 1.41848e-16, 5.67393e-12, 0.10789
 4440, 390, 0.965, 1.54809e-16, 6.19235e-12, 0.10789
 4452, 391, 0.965, 1.68909e-16, 6.75636e-12, 0.10789
 4464, 392, 0.965, 1.84245e-16, 7.36981e-12, 0.10789
 4476, 393, 0.965, 2.00921e-16, 8.03685e-12, 0.10789
 4488, 394, 0.965, 2.1905e-16, 8.762e-12, 0.10789
 4500, 395, 0.965, 2.38753e-16, 9.55011e-12, 0.10789
 4512, 396, 0.965, 2.6016e-16, 1.04064e-11, 0.10789
 4524, 397, 0.965, 2.83415e-16, 1.13366e-11, 0.10789
 4536, 398, 0.965, 3.0867e-16, 1.23468e-11, 0.10789
 4548, 399, 0.965, 3.36089e-16, 1.34436e-11, 0.10789
 4560, 400, 0.965, 3.65852e-16, 1.46341e-11, 0.10789
 4572, 401, 0.965, 3.9815e-16, 1.5926e-11, 0.10789
 4584, 402, 0.965, 4.33191e-16, 1.73277e-11, 0.10789
 4596, 403, 0.965, 4.71199e-16, 1.88479e-11, 0.10789
 4608, 404, 0.965, 5.12413e-16, 2.04965e-11, 0.10789
 4620, 405, 0.965, 5.57095e-16, 2.22838e-11, 0.10789
 4632, 406, 0.965, 6.05525e-16, 2.4221e-11, 0.10789
 4644, 407, 0.965, 6.58002e-16, 2.63201e-11, 0.10789
 4656, 408, 0.965, 7.14854e-16, 2.85941e-11, 0.10789
 4668, 409, 0.965, 7.76428e-16, 3.10571e-11, 0.10789
 4680, 410, 0.965, 8.43103e-16, 3.37241e-11, 0.10789
 4692, 411, 0.965, 9.15282e-16, 3.66113e-11, 0.10789
 4704, 412, 0.965, 9.93403e-16, 3.97361e-11, 0.10789
 4716, 413, 0.965, 1.07793e-15, 4.31174e-11, 0.10789
 4728, 414, 0.965, 1.16938e-15, 4.67752e-11, 0.10789
 4740, 415, 0.965, 1.26828e-15, 5.07313e-11, 0.10789
 4752, 416, 0.965, 1.37523e-15, 5.50091e-11, 0.10789
 4764, 417, 0.965, 1.49084e-15, 5.96336e-11, 0.10789
 4776, 418, 0.965, 1.61579e-15, 6.46318e-11, 0.10789
 4788, 419, 0.965, 1.75082e-15, 7.00326e-11, 0.10789
 4800, 420, 0.965, 1.89668e-15, 7.58671e-11, 0.10789
 4812, 421, 0.965, 2.05422e-15, 8.21688e-11, 0.10789
 4824, 422, 0.965, 2.22434e-15, 8.89735e-11, 0.10789
 4836, 423, 0.965, 2.40799e-15, 9.63197e-11, 0.10789
 4848, 424, 0.965, 2.60622e-15, 1.04249e-10, 0.10789
 4860, 425, 0.965, 2.82012e-15, 1.12805e-10, 0.10789
 4872, 426, 0.965, 3.05089e-15, 1.22036e-10, 0.10789
 4884, 427, 0.965, 3.29981e-15, 1.31992e-10, 0.10789
 4896, 428, 0.965, 3.56823e-15, 1.42729e-10, 0.10789
 4908, 429, 0.965, 3.85763e-15, 1.54305e-10, 0.10789
 4920, 430, 0.965, 4.16957e-15, 1.66783e-10, 0.10789
 4932, 431, 0.965, 4.50575e-15, 1.8023e-10, 0.10789
 4944, 432, 0.965, 4.86796e-15, 1.94718e-10, 0.10789
 4956, 433, 0.965, 5.25813e-15, 2.10325e-10, 0.10789
 4968, 434, 0.965, 5.67834e-15, 2.27134e-10, 0.10789
 4980, 435, 0.965, 6.13081e-15, 2.45232e-10, 0.10789
 4992, 436, 0.965, 6.61789e-15, 2.64716e-10, 0.10789
 5004, 437, 0.965, 7.14213e-15, 2.85685e-10, 0.10789
 5016, 438, 0.965, 7.70625e-15, 3.0825e-10, 0.10789
 5028, 439, 0.965, 8.31315e-15, 3.32526e-10, 0.10789
 5040, 440, 0.965, 8.96594e-15, 3.58637e-10, 0.10789
 5052, 441, 0.965, 9.66794e-15, 3.86718e-10, 0.10789
 5064, 442, 0.965, 1.04227e-14, 4.16908e-10, 0.10789
 5076, 443, 0.965, 1.1234e-14, 4.49362e-10, 0.10789
 5088, 444, 0.965, 1.2106e-14, 4.8424e-10, 0.10789
 5100, 445, 0.965, 1.30429e-14, 5.21717e-10, 0.10789
 5112, 446, 0.965, 1.40495e-14, 5.61978e-10, 0.10789
 5124, 447, 0.965, 1.51305e-14, 6.05221e-10, 0.10789
 5136, 448, 0.965, 1.62914e-14, 6.51657e-10, 0.10789
 5148, 449, 0.965, 1.75378e-14, 7.01513e-10, 0.10789
 5160, 450, 0.965, 1.88757e-14, 7.55029e-10, 0.10789
 5172, 451, 0.965, 2.03116e-14, 8.12462e-10, 0.10789
 5184, 452, 0.965, 2.18522e-14, 8.74088e-10, 0.10789
 5196, 453, 0.965, 2.3505e-14, 9.40199e-10, 0.10789
 5208, 454, 0.965, 2.52777e-14, 1.01111e-09, 0.10789
 5220, 455, 0.965, 2.71786e-14, 1.08715e-09, 0.10789
 5232, 456, 0.965, 2.92167e-14, 1.16867e-09, 0.10789
 5244, 457, 0.965, 3.14015e-14, 1.25606e-09, 0.10789
 5256, 458, 0.965, 3.37429e-14, 1.34972e-09, 0.10789
 5268, 459, 0.965, 3.62518e-14, 1.45007e-09, 0.10789
 5280, 460, 0.965, 3.89396e-14, 1.55759e-09, 0.10789
 5292, 461, 0.965, 4.18186e-14, 1.67274e-09, 0.10789
 5304, 462, 0.965, 4.49017e-14, 1.79607e-09, 0.10789
 5316, 463, 0.965, 4.82028e-14, 1.92811e-09, 0.10789
 5328, 464, 0.965, 5.17366e-14, 2.06946e-09, 0.10789
 5340, 465, 0.965, 5.55189e-14, 2.22076e-09, 0.10789
 5352, 466, 0.965, 5.95663e-14, 2.38265e-09, 0.10789
 5364, 467, 0.965, 6.38965e-14, 2.55586e-09, 0.10789
 5376, 468, 0.965, 6.85287e-14, 2.74115e-09, 0.10789
 5388, 469, 0.965, 7.34827e-14, 2.93931e-09, 0.10789
 5400, 470, 0.965, 7.87801e-14, 3.1512e-09, 0.10789
 5412, 471, 0.965, 8.44436e-14, 3.37774e-09, 0.10789
 5424, 472, 0.965, 9.04973e-14, 3.61989e-09, 0.10789
 5436, 473, 0.965, 9.69671e-14, 3.87868e-09, 0.10789
 5448, 474, 0.965, 1.0388e-13, 4.15521e-09, 0.10789
 5460, 475, 0.965, 1.11266e-13, 4.45062e-09, 0.10789
 5472, 476, 0.965, 1.19154e-13, 4.76617e-09, 0.10789
 5484, 477, 0.965, 1.27579e-13, 5.10316e-09, 0.10789
 5496, 478, 0.965, 1.36574e-13, 5.46298e-09, 0.10789
 5508, 479, 0.965, 1.46178e-13, 5.84711e-09, 0.10789
 5520, 480, 0.965, 1.56428e-13, 6.25712e-09, 0.10789
 5532, 481, 0.965, 1.67367e-13, 6.69468e-09, 0.10789
 5544, 482, 0.965, 1.79039e-13, 7.16156e-09, 0.10789
 5556, 483, 0.965, 1.91491e-13, 7.65962e-09, 0.10789
 5568, 484, 0.965, 2.04772e-13, 8.19088e-09, 0.10789
 5580, 485, 0.965, 2.18936e-13, 8.75743e-09, 0.10789
 5592, 486, 0.965, 2.34038e-13, 9.36152e-09, 0.10789
 5604, 487, 0.965, 2.50138e-13, 1.00055e-08, 0.10789
 5616, 488, 0.965, 2.67299e-13, 1.0692e-08, 0.10789
 5628, 489, 0.965, 2.85587e-13, 1.14235e-08, 0.10789
 5640, 490, 0.965, 3.05074e-13, 1.2203e-08, 0.10789
 5652, 491, 0.965, 3.25834e-13, 1.30334e-08, 0.10789
 5664, 492, 0.965, 3.47948e-13, 1.39179e-08, 0.10789
 5676, 493, 0.965, 3.71498e-13, 1.48599e-08, 0.10789
 5688, 494, 0.965, 3.96574e-13, 1.5863e-08, 0.10789
 5700, 495, 0.965, 4.23271e-13, 1.69308e-08, 0.10789
 5712, 496, 0.965, 4.51689e-13, 1.80676e-08, 0.10789
 5724, 497, 0.965, 4.81933e-13, 1.92773e-08, 0.10789
 5736, 498, 0.965, 5.14116e-13, 2.05647e-08, 0.10789
 5748, 499, 0.965, 5.48357e-13, 2.19343e-08, 0.10789
 5760, 500, 0.965, 5.8478e-13, 2.33912e-08, 0.10789
 5772, 501, 0.965, 6.23519e-13, 2.49408e-08, 0.10789
 5784, 502, 0.965, 6.64714e-13, 2.65886e-08, 0.10789
 5796, 503, 0.965, 7.08514e-13, 2.83406e-08, 0.10789
 5808, 504, 0.965, 7.55076e-13, 3.02031e-08, 0.10789
 5820, 505, 0.965, 8.04567e-13, 3.21827e-08, 0.10789
 5832, 506, 0.965, 8.57162e-13, 3.42865e-08, 0.10789
 5844, 507, 0.965, 9.13046e-13, 3.65219e-08, 0.10789
 5856, 508, 0.965, 9.72417e-13, 3.88967e-08, 0.10789
 5868, 509, 0.965, 1.03548e-12, 4.14193e-08, 0.10789
 5880, 510, 0.965, 1.10246e-12, 4.40984e-08, 0.10789
 5892, 511, 0.965, 1.17358e-12, 4.69433e-08, 0.10789
 5904, 512, 0.965, 1.24909e-12, 4.99637e-08, 0.10789
 5916, 513, 0.965, 1.32925e-12, 5.31701e-08, 0.10789
 5928, 514, 0.965, 1.41433e-12, 5.65733e-08, 0.10789
 5940, 515, 0.965, 1.50462e-12, 6.01849e-08, 0.10789
 5952, 516, 0.965, 1.60042e-12, 6.40169e-08, 0.10789
 5964, 517, 0.965, 1.70206e-12, 6.80823e-08, 0.10789
 5976, 518, 0.965, 1.80987e-12, 7.23947e-08, 0.10789
 5988, 519, 0.965, 1.92421e-12, 7.69682e-08, 0.10789
 6000, 520, 0.965, 2.04545e-12, 8.1818e-08, 0.10789
 6012, 521, 0.965, 2.174e-12, 8.69601e-08, 0.10789
 6024, 522, 0.965, 2.31028e-12, 9.24111e-08, 0.10789
 6036, 523, 0.965, 2.45472e-12, 9.81888e-08, 0.10789
 6048, 524, 0.965, 2.6078e-12, 1.04312e-07, 0.10789
 6060, 525, 0.965, 2.77e-12, 1.108e-07, 0.10789
 6072, 526, 0.965, 2.94185e-12, 1.17674e-07, 0.10789
 6084, 527, 0.965, 3.12389e-12, 1.24956e-07, 0.10789
 6096, 528, 0.965, 3.31669e-12, 1.32668e-07, 0.10789
 6108, 529, 0.965, 3.52088e-12, 1.40835e-07, 0.10789
 6120, 530, 0.965, 3.73707e-12, 1.49483e-07, 0.10789
 6132, 531, 0.965, 3.96595e-12, 1.58638e-07, 0.10789
 6144, 532, 0.965, 4.20823e-12, 1.68329e-07, 0.10789
 6156, 533, 0.965, 4.46465e-12, 1.78586e-07, 0.10789
 6168, 534, 0.965, 4.736e-12, 1.8944e-07, 0.10789
 6180, 535, 0.965, 5.02312e-12, 2.00925e-07, 0.10789
 6192, 536, 0.965, 5.32686e-12, 2.13074e-07, 0.10789
 6204, 537, 0.965, 5.64815e-12, 2.25926e-07, 0.10789
 6216, 538, 0.965, 5.98795e-12, 2.39518e-07, 0.10789
 6228, 539, 0.965, 6.34729e-12, 2.53891e-07, 0.10789
 6240, 540, 0.965, 6.72722e-12, 2.69089e-07, 0.10789
 6252, 541, 0.965, 7.12888e-12, 2.85155e-07, 0.10789
 6264, 542, 0.965, 7.55344e-12, 3.02138e-07, 0.10789
 6276, 543, 0.965, 8.00215e-12, 3.20086e-07, 0.10789
 6288, 544, 0.965, 8.47633e-12, 3.39053e-07, 0.10789
 6300, 545, 0.965, 8.97733e-12, 3.59093e-07, 0.10789
 6312, 546, 0.965, 9.50662e-12, 3.80265e-07, 0.10789
 6324, 547, 0.965, 1.00657e-11, 4.02628e-07, 0.10789
 6336, 548, 0.965, 1.06562e-11, 4.26248e-07, 0.10789
 6348, 549, 0.965, 1.12797e-11, 4.5119e-07, 0.10789
 6360, 550, 0.965, 1.19381e-11, 4.77526e-07, 0.10789
 6372, 551, 0.965, 1.26332e-11, 5.05329e-07, 0.10789
 6384, 552, 0.965, 1.3367e-11, 5.34678e-07, 0.10789
 6396, 553, 0.965, 1.41414e-11, 5.65655e-07, 0.10789
 6408, 554, 0.965, 1.49586e-11, 5.98344e-07, 0.10789
 6420, 555, 0.965, 1.58209e-11, 6.32837e-07, 0.10789
 6432, 556, 0.965, 1.67307e-11, 6.69227e-07, 0.10789
 6444, 557, 0.965, 1.76904e-11, 7.07615e-07, 0.10789
 6456, 558, 0.965, 1.87026e-11, 7.48104e-07, 0.10789
 6468, 559, 0.965, 1.97701e-11, 7.90805e-07, 0.10789
 6480, 560, 0.965, 2.08958e-11, 8.35831e-07, 0.10789
 6492, 561, 0.965, 2.20826e-11, 8.83304e-07, 0.10789
 6504, 562, 0.965, 2.33337e-11, 9.33349e-07, 0.10789
 6516, 563, 0.965, 2.46525e-11, 9.861e-07, 0.10789
 6528, 564, 0.965, 2.60424e-11, 1.0417e-06, 0.10789
 6540, 565, 0.965, 2.7507e-11, 1.10028e-06, 0.10789
 6552, 566, 0.965, 2.90503e-11, 1.16201e-06, 0.10789
 6564, 567, 0.965, 3.06761e-11, 1.22704e-06, 0.10789
 6576, 568, 0.965, 3.23887e-11, 1.29555e-06, 0.10789
 6588, 569, 0.965, 3.41925e-11, 1.3677e-06, 0.10789
 6600, 570, 0.965, 3.60922e-11, 1.44369e-06, 0.10789
 6612, 571, 0.965, 3.80925e-11, 1.5237e-06, 0.10789
 6624, 572, 0.965, 4.01985e-11, 1.60794e-06, 0.10789
 6636, 573, 0.965, 4.24156e-11, 1.69662e-06, 0.10789
 6648, 574, 0.965, 4.47492e-11, 1.78997e-06, 0.10789
 6660, 575, 0.965, 4.72054e-11, 1.88821e-06, 0.10789
 6672, 576, 0.965, 4.979e-11, 1.9916e-06, 0.10789
 6684, 577, 0.965, 5.25096e-11, 2.10038e-06, 0.10789
 6696, 578, 0.965, 5.53708e-11, 2.21483e-06, 0.10789
 6708, 579, 0.965, 5.83807e-11, 2.33523e-06, 0.10789
 6720, 580, 0.965, 6.15465e-11, 2.46186e-06, 0.10789
 6732, 581, 0.965, 6.4876e-11, 2.59504e-06, 0.10789
 6744, 582, 0.965, 6.83771e-11, 2.73509e-06, 0.10789
 6756, 583, 0.965, 7.20584e-11, 2.88234e-06, 0.10789
 6768, 584, 0.965, 7.59285e-11, 3.03714e-06, 0.10789
 6780, 585, 0.965, 7.99968e-11, 3.19987e-06, 0.10789
 6792, 586, 0.965, 8.42728e-11, 3.37091e-06, 0.10789
 6804, 587, 0.965, 8.87666e-11, 3.55067e-06, 0.10789
 6816, 588, 0.965, 9.34888e-11, 3.73955e-06, 0.10789
 6828, 589, 0.965, 9.84503e-11, 3.93801e-06, 0.10789
 6840, 590, 0.965, 1.03663e-10, 4.14651e-06, 0.10789
 6852, 591, 0.965, 1.09138e-10, 4.36553e-06, 0.10789
 6864, 592, 0.965, 1.14889e-10, 4.59556e-06, 0.10789
 6876, 593, 0.965, 1.20929e-10, 4.83715e-06, 0.10789
 6888, 594, 0.965, 1.27271e-10, 5.09083e-06, 0.10789
 6900, 595, 0.965, 1.3393e-10, 5.35718e-06, 0.10789
 6912, 596, 0.965, 1.4092e-10, 5.63681e-06, 0.10789
 6924, 597, 0.965, 1.48259e-10, 5.93035e-06, 0.10789
 6936, 598, 0.965, 1.55961e-10, 6.23844e-06, 0.10789
 6948, 599, 0.965, 1.64044e-10, 6.56177e-06, 0.10789
 6960, 600, 0.965, 1.72527e-10, 6.90106e-06, 0.10789
 6972, 601, 0.965, 1.81427e-10, 7.25707e-06, 0.10789
 6984, 602, 0.965, 1.90764e-10, 7.63055e-06, 0.10789
 6996, 603, 0.965, 2.00559e-10, 8.02234e-06, 0.10789
 7008, 604, 0.965, 2.10832e-10, 8.43329e-06, 0.10789
 7020, 605, 0.965, 2.21607e-10, 8.86428e-06, 0.10789
 7032, 606, 0.965, 2.32906e-10, 9.31623e-06, 0.10789
 7044, 607, 0.965, 2.44753e-10, 9.79012e-06, 0.10789
 7056, 608, 0.965, 2.57174e-10, 1.0287e-05, 0.107891
 7068, 609, 0.965, 2.70195e-10, 1.08078e-05, 0.10789
 7080, 610, 0.965, 2.83844e-10, 1.13537e-05, 0.10789
 7092, 611, 0.965, 2.98148e-10, 1.19259e-05, 0.10789
 7104, 612, 0.965, 3.13139e-10, 1.25256e-05, 0.10789
 7116, 613, 0.965, 3.28848e-10, 1.31539e-05, 0.107891
 7128, 614, 0.965, 3.45306e-10, 1.38122e-05, 0.10789
 7140, 615, 0.965, 3.62548e-10, 1.45019e-05, 0.10789
 7152, 616, 0.965, 3.80609e-10, 1.52243e-05, 0.10789
 7164, 617, 0.965, 3.99526e-10, 1.5981e-05, 0.10789
 7176, 618, 0.965, 4.19338e-10, 1.67735e-05, 0.107891
 7188, 619, 0.965, 4.40084e-10, 1.76034e-05, 0.107891
 7200, 620, 0.965, 4.61807e-10, 1.84723e-05, 0.107891
 7212, 621, 0.965, 4.8455e-10, 1.9382e-05, 0.10789
 7224, 622, 0.965, 5.08359e-10, 2.03343e-05, 0.107891
 7236, 623, 0.965, 5.3328e-10, 2.13312e-05, 0.10789
 7248, 624, 0.965, 5.59363e-10, 2.23745e-05, 0.10789
 7260, 625, 0.965, 5.86659e-10, 2.34664e-05, 0.107891
 7272, 626, 0.965, 6.15223e-10, 2.46089e-05, 0.107891
 7284, 627, 0.965, 6.45109e-10, 2.58044e-05, 0.10789
 7296, 628, 0.965, 6.76376e-10, 2.7055e-05, 0.107891
 7308, 629, 0.965, 7.09083e-10, 2.83633e-05, 0.107891
 7320, 630, 0.965, 7.43295e-10, 2.97318e-05, 0.107891
 7332, 631, 0.965, 7.79075e-10, 3.1163e-05, 0.107891
 7344, 632, 0.965, 8.16494e-10, 3.26598e-05, 0.107891
 7356, 633, 0.965, 8.55621e-10, 3.42248e-05, 0.107891
 7368, 634, 0.965, 8.96531e-10, 3.58612e-05, 0.107891
 7380, 635, 0.965, 9.39299e-10, 3.7572e-05, 0.107891
 7392, 636, 0.965, 9.84008e-10, 3.93603e-05, 0.107891
 7404, 637, 0.965, 1.03074e-09, 4.12296e-05, 0.107891
 7416, 638, 0.965, 1.07958e-09, 4.31832e-05, 0.107891
 7428, 639, 0.965, 1.13062e-09, 4.52248e-05, 0.107891
 7440, 640, 0.965, 1.18395e-09, 4.73581e-05, 0.107891
 7452, 641, 0.965, 1.23968e-09, 4.9587e-05, 0.107891
 7464, 642, 0.965, 1.29789e-09, 5.19157e-05, 0.107891
 7476, 643, 0.965, 1.35871e-09, 5.43482e-05, 0.107891
 7488, 644, 0.965, 1.42223e-09, 5.68891e-05, 0.107891
 7500, 645, 0.965, 1.48857e-09, 5.95428e-05, 0.107891
 7512, 646, 0.965, 1.55785e-09, 6.23141e-05, 0.107891
 7524, 647, 0.965, 1.6302e-09, 6.5208e-05, 0.107891
 7536, 648, 0.965, 1.70574e-09, 6.82295e-05, 0.107891
 7548, 649, 0.965, 1.7846e-09, 7.1384e-05, 0.107891
 7560, 650, 0.965, 1.86693e-09, 7.4677e-05, 0.107891
 7572, 651, 0.965, 1.95286e-09, 7.81144e-05, 0.107891
 7584, 652, 0.965, 2.04255e-09, 8.1702e-05, 0.107891
 7596, 653, 0.964999, 2.13615e-09, 8.54461e-05, 0.107891
 7608, 654, 0.964999, 2.23383e-09, 8.93531e-05, 0.107891
 7620, 655, 0.964999, 2.33574e-09, 9.34298e-05, 0.107891
 7632, 656, 0.964999, 2.44208e-09, 9.76831e-05, 0.107891
 7644, 657, 0.964999, 2.553e-09, 0.00010212, 0.107891
 7656, 658, 0.964999, 2.66872e-09, 0.000106749, 0.107891
 7668, 659, 0.964999, 2.78941e-09, 0.000111576, 0.107891
 7680, 660, 0.964999, 2.91528e-09, 0.000116611, 0.107891
 7692, 661, 0.964999, 3.04655e-09, 0.000121862, 0.107891
 7704, 662, 0.964999, 3.18343e-09, 0.000127337, 0.107891
 7716, 663, 0.964999, 3.32614e-09, 0.000133046, 0.107891
 7728, 664, 0.964999, 3.47493e-09, 0.000138997, 0.107891
 7740, 665, 0.964999, 3.63003e-09, 0.000145201, 0.107891
 7752, 666, 0.964999, 3.7917e-09, 0.000151668, 0.107891
 7764, 667, 0.964999, 3.96021e-09, 0.000158408, 0.107891
 7776, 668, 0.964999, 4.13583e-09, 0.000165433, 0.107891
 7788, 669, 0.964999, 4.31883e-09, 0.000172753, 0.107891
 7800, 670, 0.964999, 4.50952e-09, 0.000180381, 0.107891
 7812, 671, 0.964999, 4.70819e-09, 0.000188328, 0.107891
 7824, 672, 0.964999, 4.91517e-09, 0.000196607, 0.107892
 7836, 673, 0.964999, 5.13078e-09, 0.000205231, 0.107892
 7848, 674, 0.964999, 5.35537e-09, 0.000214215, 0.107892
 7860, 675, 0.964998, 5.58928e-09, 0.000223571, 0.107892
 7872, 676, 0.964998, 5.83288e-09, 0.000233315, 0.107892
 7884, 677, 0.964998, 6.08656e-09, 0.000243462, 0.107892
 7896, 678, 0.964998, 6.35069e-09, 0.000254028, 0.107892
 7908, 679, 0.964998, 6.6257e-09, 0.000265028, 0.107892
 7920, 680, 0.964998, 6.912e-09, 0.00027648, 0.107892
 7932, 681, 0.964998, 7.21003e-09, 0.000288401, 0.107892
 7944, 682, 0.964998, 7.52025e-09, 0.00030081, 0.107892
 7956, 683, 0.964998, 7.84313e-09, 0.000313725, 0.107892
 7968, 684, 0.964998, 8.17915e-09, 0.000327166, 0.107892
 7980, 685, 0.964998, 8.52882e-09, 0.000341153, 0.107892
 7992, 686, 0.964998, 8.89266e-09, 0.000355706, 0.107892
 8004, 687, 0.964997, 9.27121e-09, 0.000370849, 0.107893
 8016, 688, 0.964997, 9.66505e-09, 0.000386602, 0.107893
 8028, 689, 0.964997, 1.00747e-08, 0.00040299, 0.107893
 8040, 690, 0.964997, 1.05009e-08, 0.000420036, 0.107893
 8052, 691, 0.964997, 1.09441e-08, 0.000437765, 0.107893
 8064, 692, 0.964997, 1.14051e-08, 0.000456204, 0.107893
 8076, 693, 0.964997, 1.18845e-08, 0.000475379, 0.107893
 8088, 694, 0.964997, 1.23829e-08, 0.000495317, 0.107893
 8100, 695, 0.964996, 1.29012e-08, 0.000516048, 0.107893
 8112, 696, 0.964996, 1.344e-08, 0.000537601, 0.107893
 8124, 697, 0.964996, 1.40002e-08, 0.000560007, 0.107894
 8136, 698, 0.964996, 1.45825e-08, 0.000583298, 0.107894
 8148, 699, 0.964996, 1.51877e-08, 0.000607507, 0.107894
 8160, 700, 0.964996, 1.58167e-08, 0.000632667, 0.107894
 8172, 701, 0.964995, 1.64704e-08, 0.000658815, 0.107894
 8184, 702, 0.964995, 1.71497e-08, 0.000685986, 0.107894
 8196, 703, 0.964995, 1.78555e-08, 0.000714219, 0.107894
 8208, 704, 0.964995, 1.85888e-08, 0.000743552, 0.107895
 8220, 705, 0.964994, 1.93507e-08, 0.000774027, 0.107895
 8232, 706, 0.964994, 2.01421e-08, 0.000805684, 0.107895
 8244, 707, 0.964994, 2.09642e-08, 0.000838567, 0.107895
 8256, 708, 0.964994, 2.1818e-08, 0.000872721, 0.107895
 8268, 709, 0.964993, 2.27048e-08, 0.000908193, 0.107895
 8280, 710, 0.964993, 2.36257e-08, 0.00094503, 0.107896
 8292, 711, 0.964993, 2.4582e-08, 0.000983281, 0.107896
 8304, 712, 0.964993, 2.5575e-08, 0.001023, 0.107896
 8316, 713, 0.964992, 2.66059e-08, 0.00106423, 0.107896
 8328, 714, 0.964992, 2.76761e-08, 0.00110704, 0.107897
 8340, 715, 0.964992, 2.87871e-08, 0.00115148, 0.107897
 8352, 716, 0.964991, 2.99403e-08, 0.00119761, 0.107897
 8364, 717, 0.964991, 3.11372e-08, 0.00124549, 0.107897
 8376, 718, 0.964991, 3.23794e-08, 0.00129518, 0.107898
 8388, 719, 0.96499, 3.36685e-08, 0.00134674, 0.107898
 8400, 720, 0.96499, 3.50062e-08, 0.00140025, 0.107898
 8412, 721, 0.964989, 3.63942e-08, 0.00145577, 0.107898
 8424, 722, 0.964989, 3.78343e-08, 0.00151337, 0.107899
 8436, 723, 0.964988, 3.93283e-08, 0.00157313, 0.107899
 8448, 724, 0.964988, 4.08781e-08, 0.00163512, 0.107899
 8460, 725, 0.964987, 4.24856e-08, 0.00169943, 0.1079
 8472, 726, 0.964987, 4.4153e-08, 0.00176612, 0.1079
 8484, 727, 0.964986, 4.58823e-08, 0.00183529, 0.107901
 8496, 728, 0.964986, 4.76757e-08, 0.00190703, 0.107901
 8508, 729, 0.964985, 4.95353e-08, 0.00198141, 0.107901
 8520, 730, 0.964985, 5.14636e-08, 0.00205854, 0.107902
 8532, 731, 0.964984, 5.34629e-08, 0.00213851, 0.107902
 8544, 732, 0.964983, 5.55356e-08, 0.00222142, 0.107903
 8556, 733, 0.964983, 5.76843e-08, 0.00230737, 0.107903
 8568, 734, 0.964982, 5.99116e-08, 0.00239646, 0.107904
 8580, 735, 0.964981, 6.22203e-08, 0.00248881, 0.107904
 8592, 736, 0.96498, 6.46131e-08, 0.00258452, 0.107905
 8604, 737, 0.96498, 6.70928e-08, 0.00268371, 0.107905
 8616, 738, 0.964979, 6.96626e-08, 0.0027865, 0.107906
 8628, 739, 0.964978, 7.23254e-08, 0.00289302, 0.107906
 8640, 740, 0.964977, 7.50844e-08, 0.00300338, 0.107907
 8652, 741, 0.964976, 7.79429e-08, 0.00311772, 0.107908
 8664, 742, 0.964975, 8.09043e-08, 0.00323617, 0.107908
 8676, 743, 0.964974, 8.3972e-08, 0.00335888, 0.107909
 8688, 744, 0.964973, 8.71497e-08, 0.00348599, 0.10791
 8700, 745, 0.964972, 9.0441e-08, 0.00361764, 0.10791
 8712, 746, 0.964971, 9.38498e-08, 0.00375399, 0.107911
 8724, 747, 0.96497, 9.738e-08, 0.0038952, 0.107912
 8736, 748, 0.964969, 1.01036e-07, 0.00404143, 0.107913
 8748, 749, 0.964967, 1.04821e-07, 0.00419284, 0.107914
 8760, 750, 0.964966, 1.0874e-07, 0.00434962, 0.107914
 8772, 751, 0.964965, 1.12798e-07, 0.00451193, 0.107915
 8784, 752, 0.964963, 1.16999e-07, 0.00467996, 0.107916
 8796, 753, 0.964962, 1.21348e-07, 0.00485391, 0.107917
 8808, 754, 0.964961, 1.25849e-07, 0.00503396, 0.107918
 8820, 755, 0.964959, 1.30508e-07, 0.00522032, 0.107919
 8832, 756, 0.964957, 1.3533e-07, 0.0054132, 0.10792
 8844, 757, 0.964956, 1.4032e-07, 0.00561281, 0.107921
 8856, 758, 0.964954, 1.45484e-07, 0.00581937, 0.107923
 8868, 759, 0.964952, 1.50828e-07, 0.0060331, 0.107924
 8880, 760, 0.96495, 1.56356e-07, 0.00625425, 0.107925
 8892, 761, 0.964949, 1.62077e-07, 0.00648306, 0.107926
 8904, 762, 0.964947, 1.67994e-07, 0.00671977, 0.107927
 8916, 763, 0.964944, 1.74116e-07, 0.00696464, 0.107929
 8928, 764, 0.964942, 1.80448e-07, 0.00721793, 0.10793
 8940, 765, 0.96494, 1.86998e-07, 0.00747992, 0.107932
 8952, 766, 0.964938, 1.93772e-07, 0.00775089, 0.107933
 8964, 767, 0.964935, 2.00778e-07, 0.00803112, 0.107934
 8976, 768, 0.964933, 2.08023e-07, 0.00832092, 0.107936
 8988, 769, 0.964931, 2.15515e-07, 0.00862058, 0.107938
 9000, 770, 0.964928, 2.23261e-07, 0.00893043, 0.107939
 9012, 771, 0.964925, 2.3127e-07, 0.00925079, 0.107941
 9024, 772, 0.964922, 2.3955e-07, 0.009582, 0.107943
 9036, 773, 0.964919, 2.4811e-07, 0.00992439, 0.107945
 9048, 774, 0.964916, 2.56958e-07, 0.0102783, 0.107947
 9060, 775, 0.964913, 2.66105e-07, 0.0106442, 0.107949
 9072, 776, 0.96491, 2.75558e-07, 0.0110223, 0.107951
 9084, 777, 0.964907, 2.85328e-07, 0.0114131, 0.107953
 9096, 778, 0.964903, 2.95425e-07, 0.011817, 0.107955
 9108, 779, 0.9649, 3.05859e-07, 0.0122344, 0.107957
 9120, 780, 0.964896, 3.16641e-07, 0.0126656, 0.10796
 9132, 781, 0.964892, 3.27781e-07, 0.0131112, 0.107962
 9144, 782, 0.964888, 3.3929e-07, 0.0135716, 0.107965
 9156, 783, 0.964884, 3.51181e-07, 0.0140472, 0.107967
 9168, 784, 0.96488, 3.63465e-07, 0.0145386, 0.10797
 9180, 785, 0.964875, 3.76154e-07, 0.0150461, 0.107972
 9192, 786, 0.96487, 3.8926e-07, 0.0155704, 0.107975
 9204, 787, 0.964866, 4.02797e-07, 0.0161119, 0.107978
 9216, 788, 0.964861, 4.16778e-07, 0.0166711, 0.107981
 9228, 789, 0.964856, 4.31217e-07, 0.0172487, 0.107984
 9240, 790, 0.96485, 4.46127e-07, 0.0178451, 0.107988
 9252, 791, 0.964845, 4.61523e-07, 0.0184609, 0.107991
 9264, 792, 0.964839, 4.77419e-07, 0.0190968, 0.107994
 9276, 793, 0.964834, 4.93832e-07, 0.0197533, 0.107998
 9288, 794, 0.964828, 5.10777e-07, 0.0204311, 0.108002
 9300, 795, 0.964821, 5.28269e-07, 0.0211308, 0.108005
 9312, 796, 0.964815, 5.46326e-07, 0.021853, 0.108009
 9324, 797, 0.964808, 5.64964e-07, 0.0225986, 0.108013
 9336, 798, 0.964801, 5.84202e-07, 0.0233681, 0.108018
 9348, 799, 0.964794, 6.04056e-07, 0.0241623, 0.108022
 9360, 800, 0.964787, 6.24547e-07, 0.0249819, 0.108026