File: examples/Birch_TGA_Example/tmp/birch_tga_1step_2_tga.csv
s,C,g/g,1/s,W/g,W/g
Time,Temp,Mass,MLR,MCC,DSC
 3, 21.0014, 1, 2.23902e-08, 2.83061e-16, 0.448494
 6, 22.0014, 1, 2.57157e-08, 3.68465e-16, 0.448501
 9, 23.0014, 1, 2.95073e-08, 4.78783e-16, 0.448509
 12, 24.0014, 1, 3.38263e-08, 6.21035e-16, 0.448519
 15, 25.0014, 1, 3.87414e-08, 8.04148e-16, 0.44853
 18, 26.0014, 0.999999, 4.43299e-08, 1.03945e-15, 0.448543
 21, 27.0014, 0.999999, 5.06784e-08, 1.34132e-15, 0.448557
 24, 28.0014, 0.999999, 5.78835e-08, 1.72792e-15, 0.448573
 27, 29.0014, 0.999999, 6.60537e-08, 2.22221e-15, 0.448591
 30, 30.0014, 0.999999, 7.53098e-08, 2.85317e-15, 0.448612
 33, 31.0014, 0.999999, 8.57869e-08, 3.65727e-15, 0.448635
 36, 32.0014, 0.999998, 9.76355e-08, 4.68035e-15, 0.448661
 39, 33.0014, 0.999998, 1.11023e-07, 5.97999e-15, 0.448691
 42, 34.0014, 0.999998, 1.26137e-07, 7.62833e-15, 0.448725
 45, 35.0014, 0.999997, 1.43183e-07, 9.71566e-15, 0.448763
 48, 36.0014, 0.999997, 1.62393e-07, 1.23548e-14, 0.448806
 51, 37.0014, 0.999996, 1.84021e-07, 1.56865e-14, 0.448854
 54, 38.0014, 0.999996, 2.08351e-07, 1.98861e-14, 0.448908
 57, 39.0014, 0.999995, 2.35694e-07, 2.51717e-14, 0.448969
 60, 40.0014, 0.999994, 2.66397e-07, 3.18144e-14, 0.449038
 63, 41.0014, 0.999993, 3.00841e-07, 4.015e-14, 0.449115
 66, 42.0014, 0.999992, 3.39445e-07, 5.05949e-14, 0.449201
 69, 43.0014, 0.999991, 3.82671e-07, 6.36638e-14, 0.449297
 72, 44.0014, 0.99999, 4.31028e-07, 7.99924e-14, 0.449405
 75, 45.0014, 0.999989, 4.85069e-07, 1.00365e-13, 0.449525
 78, 46.0014, 0.999987, 5.45404e-07, 1.25747e-13, 0.449659
 81, 47.0014, 0.999985, 6.12697e-07, 1.57326e-13, 0.449809
 84, 48.0014, 0.999983, 6.87671e-07, 1.96562e-13, 0.449976
 87, 49.0014, 0.999981, 7.71113e-07, 2.45243e-13, 0.450162
 90, 50.0014, 0.999979, 8.63873e-07, 3.05562e-13, 0.450368
 93, 51.0014, 0.999976, 9.66874e-07, 3.80201e-13, 0.450598
 96, 52.0014, 0.999973, 1.08111e-06, 4.72436e-13, 0.450852
 99, 53.0014, 0.99997, 1.20763e-06, 5.86266e-13, 0.451134
 102, 54.0014, 0.999966, 1.34759e-06, 7.26562e-13, 0.451445
 105, 55.0014, 0.999961, 1.50219e-06, 8.99256e-13, 0.451789
 108, 56.0014, 0.999957, 1.6727e-06, 1.11155e-12, 0.452168
 111, 57.0014, 0.999951, 1.86048e-06, 1.37221e-12, 0.452586
 114, 58.0014, 0.999946, 2.06692e-06, 1.69184e-12, 0.453045
 117, 59.0014, 0.999939, 2.29347e-06, 2.08328e-12, 0.453548
 120, 60.0014, 0.999932, 2.54162e-06, 2.56209e-12, 0.4541
 123, 61.0014, 0.999924, 2.81287e-06, 3.14706e-12, 0.454702
 126, 62.0014, 0.999915, 3.10872e-06, 3.86083e-12, 0.455359
 129, 63.0014, 0.999905, 3.43062e-06, 4.73074e-12, 0.456074
 132, 64.0014, 0.999894, 3.77996e-06, 5.78967e-12, 0.45685
 135, 65.0014, 0.999882, 4.15802e-06, 7.07717e-12, 0.457689
 138, 66.0014, 0.999869, 4.56588e-06, 8.64075e-12, 0.458593
 141, 67.0014, 0.999855, 5.00443e-06, 1.05374e-11, 0.459566
 144, 68.0014, 0.999839, 5.47422e-06, 1.28354e-11, 0.460607
 147, 69.0014, 0.999822, 5.97542e-06, 1.56166e-11, 0.461717
 150, 70.0014, 0.999803, 6.50771e-06, 1.89786e-11, 0.462896
 153, 71.0014, 0.999783, 7.07018e-06, 2.30384e-11, 0.46414
 156, 72.0014, 0.999761, 7.66121e-06, 2.79352e-11, 0.465446
 159, 73.0014, 0.999737, 8.27833e-06, 3.38351e-11, 0.46681
 162, 74.0014, 0.999711, 8.91809e-06, 4.09359e-11, 0.468221
 165, 75.0014, 0.999683, 9.57597e-06, 4.94726e-11, 0.469671
 168, 76.0014, 0.999654, 1.02462e-05, 5.97248e-11, 0.471146
 171, 77.0014, 0.999622, 1.09216e-05, 7.20241e-11, 0.47263
 174, 78.0014, 0.999588, 1.15937e-05, 8.67635e-11, 0.474104
 177, 79.0014, 0.999552, 1.22523e-05, 1.04409e-10, 0.475544
 180, 80.0014, 0.999515, 1.2886e-05, 1.25511e-10, 0.476925
 183, 81.0014, 0.999475, 1.34818e-05, 1.50722e-10, 0.478218
 186, 82.0014, 0.999434, 1.40253e-05, 1.8081e-10, 0.47939
 189, 83.0014, 0.999391, 1.45013e-05, 2.16683e-10, 0.480407
 192, 84.0014, 0.999347, 1.48937e-05, 2.59409e-10, 0.481233
 195, 85.0014, 0.999302, 1.51865e-05, 3.10249e-10, 0.481832
 198, 86.0014, 0.999256, 1.53638e-05, 3.70684e-10, 0.482169
 201, 87.0014, 0.99921, 1.54114e-05, 4.42453e-10, 0.482211
 204, 88.0014, 0.999164, 1.53167e-05, 5.276e-10, 0.481932
 207, 89.0014, 0.999118, 1.50705e-05, 6.28521e-10, 0.48131
 210, 90.0014, 0.999073, 1.46676e-05, 7.48026e-10, 0.480336
 213, 91.0014, 0.99903, 1.41076e-05, 8.89403e-10, 0.479008
 216, 92.0014, 0.998989, 1.3396e-05, 1.0565e-09, 0.477339
 219, 93.0014, 0.99895, 1.25445e-05, 1.25381e-09, 0.475358
 222, 94.0014, 0.998914, 1.1571e-05, 1.48657e-09, 0.473104
 225, 95.0014, 0.998881, 1.04997e-05, 1.76093e-09, 0.470633
 228, 96.0014, 0.998851, 9.35987e-06, 2.084e-09, 0.468012
 231, 97.0014, 0.998824, 8.18465e-06, 2.4641e-09, 0.465316
 234, 98.0014, 0.998802, 7.00917e-06, 2.9109e-09, 0.462624
 237, 99.0014, 0.998782, 5.86831e-06, 3.43564e-09, 0.460016
 240, 100.001, 0.998766, 4.79426e-06, 4.05136e-09, 0.457563
 243, 101.001, 0.998753, 3.81425e-06, 4.77323e-09, 0.455328
 246, 102.001, 0.998743, 2.94865e-06, 5.61881e-09, 0.453356
 249, 103.001, 0.998736, 2.20973e-06, 6.60845e-09, 0.451673
 252, 104.001, 0.99873, 1.60121e-06, 7.7657e-09, 0.450289
 255, 105.001, 0.998726, 1.11883e-06, 9.11783e-09, 0.449192
 258, 106.001, 0.998723, 7.51613e-07, 1.06963e-08, 0.448358
 261, 107.001, 0.998721, 4.83908e-07, 1.25376e-08, 0.44775
 264, 108.001, 0.99872, 2.97565e-07, 1.46835e-08, 0.447327
 267, 109.001, 0.99872, 1.74121e-07, 1.71825e-08, 0.447046
 270, 110.001, 0.998719, 9.6572e-08, 2.00903e-08, 0.44687
 273, 111.001, 0.998719, 5.05517e-08, 2.34712e-08, 0.446766
 276, 112.001, 0.998719, 2.48611e-08, 2.73988e-08, 0.446708
 279, 113.001, 0.998719, 1.14309e-08, 3.1958e-08, 0.446677
 282, 114.001, 0.998719, 4.88816e-09, 3.72463e-08, 0.446663
 285, 115.001, 0.998719, 1.93346e-09, 4.33754e-08, 0.446656
 288, 116.001, 0.998719, 7.03525e-10, 5.04736e-08, 0.446653
 291, 117.001, 0.998719, 2.34523e-10, 5.86877e-08, 0.446652
 294, 118.001, 0.998719, 7.18402e-11, 6.8186e-08, 0.446652
 297, 119.001, 0.998719, 2.09761e-11, 7.9161e-08, 0.446652
 300, 120.001, 0.998719, 6.89019e-12, 9.18328e-08, 0.446652
 303, 121.001, 0.998719, 3.64493e-12, 1.06453e-07, 0.446652
 306, 122.001, 0.998719, 3.26741e-12, 1.23308e-07, 0.446652
 309, 123.001, 0.998719, 3.59828e-12, 1.42726e-07, 0.446652
 312, 124.001, 0.998719, 4.13123e-12, 1.6508e-07, 0.446652
 315, 125.001, 0.998719, 4.77041e-12, 1.90796e-07, 0.446652
 318, 126.001, 0.998719, 5.50901e-12, 2.20359e-07, 0.446652
 321, 127.001, 0.998719, 6.35795e-12, 2.54318e-07, 0.446652
 324, 128.001, 0.998719, 7.33253e-12, 2.93301e-07, 0.446652
 327, 129.001, 0.998719, 8.4505e-12, 3.3802e-07, 0.446652
 330, 130.001, 0.998719, 9.73207e-12, 3.89283e-07, 0.446652
 333, 131.001, 0.998719, 1.12002e-11, 4.48007e-07, 0.446652
 336, 132.001, 0.998719, 1.28808e-11, 5.15232e-07, 0.446652
 339, 133.001, 0.998719, 1.48034e-11, 5.92137e-07, 0.446652
 342, 134.001, 0.998719, 1.70014e-11, 6.80056e-07, 0.446652
 345, 135.001, 0.998719, 1.95125e-11, 7.80499e-07, 0.446652
 348, 136.001, 0.998719, 2.23794e-11, 8.95175e-07, 0.446652
 351, 137.001, 0.998719, 2.56503e-11, 1.02601e-06, 0.446652
 354, 138.001, 0.998719, 2.93799e-11, 1.1752e-06, 0.446652
 357, 139.001, 0.998719, 3.36295e-11, 1.34518e-06, 0.446652
 360, 140.001, 0.998719, 3.84687e-11, 1.53875e-06, 0.446652
 363, 141.001, 0.998719, 4.39757e-11, 1.75903e-06, 0.446652
 366, 142.001, 0.998719, 5.02386e-11, 2.00954e-06, 0.446652
 369, 143.001, 0.998719, 5.73567e-11, 2.29427e-06, 0.446652
 372, 144.001, 0.998719, 6.54418e-11, 2.61767e-06, 0.446652
 375, 145.001, 0.998719, 7.46195e-11, 2.98478e-06, 0.446652
 378, 146.001, 0.998719, 8.50311e-11, 3.40124e-06, 0.446652
 381, 147.001, 0.998719, 9.68351e-11, 3.87341e-06, 0.446652
 384, 148.001, 0.998719, 1.1021e-10, 4.40839e-06, 0.446652
 387, 149.001, 0.998719, 1.25355e-10, 5.01419e-06, 0.446652
 390, 150.001, 0.998719, 1.42494e-10, 5.69977e-06, 0.446652
 393, 151.001, 0.998719, 1.61879e-10, 6.47518e-06, 0.446652
 396, 152.001, 0.998719, 1.83791e-10, 7.35165e-06, 0.446652
 399, 153.001, 0.998719, 2.08545e-10, 8.3418e-06, 0.446652
 402, 154.001, 0.998719, 2.36493e-10, 9.45971e-06, 0.446652
 405, 155.001, 0.998719, 2.68028e-10, 1.07211e-05, 0.446652
 408, 156.001, 0.998719, 3.03592e-10, 1.21437e-05, 0.446652
 411, 157.001, 0.998719, 3.43675e-10, 1.3747e-05, 0.446652
 414, 158.001, 0.998719, 3.88826e-10, 1.5553e-05, 0.446652
 417, 159.001, 0.998719, 4.39658e-10, 1.75863e-05, 0.446652
 420, 160.001, 0.998719, 4.96854e-10, 1.98742e-05, 0.446652
 423, 161.001, 0.998719, 5.61174e-10, 2.2447e-05, 0.446652
 426, 162.001, 0.998719, 6.33466e-10, 2.53386e-05, 0.446652
 429, 163.001, 0.998719, 7.14674e-10, 2.8587e-05, 0.446652
 432, 164.001, 0.998719, 8.05847e-10, 3.22339e-05, 0.446652
 435, 165.001, 0.998719, 9.08154e-10, 3.63262e-05, 0.446652
 438, 166.001, 0.998719, 1.02289e-09, 4.09157e-05, 0.446652
 441, 167.001, 0.998719, 1.1515e-09, 4.60602e-05, 0.446652
 444, 168.001, 0.998719, 1.29559e-09, 5.18236e-05, 0.446652
 447, 169.001, 0.998719, 1.45693e-09, 5.82772e-05, 0.446652
 450, 170.001, 0.998719, 1.63749e-09, 6.54997e-05, 0.446652
 453, 171.001, 0.998719, 1.83947e-09, 7.35786e-05, 0.446652
 456, 172.001, 0.998719, 2.06527e-09, 8.26108e-05, 0.446652
 459, 173.001, 0.998719, 2.31759e-09, 9.27037e-05, 0.446652
 462, 174.001, 0.998719, 2.5994e-09, 0.000103976, 0.446652
 465, 175.001, 0.998719, 2.91398e-09, 0.000116559, 0.446652
 468, 176.001, 0.998719, 3.26497e-09, 0.000130599, 0.446652
 471, 177.001, 0.998719, 3.65639e-09, 0.000146256, 0.446652
 474, 178.001, 0.998719, 4.09268e-09, 0.000163707, 0.446653
 477, 179.001, 0.998719, 4.57874e-09, 0.00018315, 0.446653
 480, 180.001, 0.998719, 5.12e-09, 0.0002048, 0.446653
 483, 181.001, 0.998719, 5.72242e-09, 0.000228897, 0.446653
 486, 182.001, 0.998718, 6.3926e-09, 0.000255704, 0.446653
 489, 183.001, 0.998718, 7.13779e-09, 0.000285512, 0.446653
 492, 184.001, 0.998718, 7.96602e-09, 0.000318641, 0.446653
 495, 185.001, 0.998718, 8.88608e-09, 0.000355443, 0.446654
 498, 186.001, 0.998718, 9.9077e-09, 0.000396308, 0.446654
 501, 187.001, 0.998718, 1.10415e-08, 0.000441661, 0.446654
 504, 188.001, 0.998718, 1.22994e-08, 0.000491974, 0.446654
 507, 189.001, 0.998718, 1.36941e-08, 0.000547763, 0.446655
 510, 190.001, 0.998718, 1.52399e-08, 0.000609594, 0.446655
 513, 191.001, 0.998718, 1.69523e-08, 0.000678093, 0.446655
 516, 192.001, 0.998718, 1.88486e-08, 0.000753944, 0.446656
 519, 193.001, 0.998718, 2.09474e-08, 0.000837897, 0.446656
 522, 194.001, 0.998718, 2.32695e-08, 0.000930779, 0.446657
 525, 195.001, 0.998718, 2.58373e-08, 0.00103349, 0.446657
 528, 196.001, 0.998718, 2.86757e-08, 0.00114703, 0.446658
 531, 197.001, 0.998718, 3.18118e-08, 0.00127247, 0.446659
 534, 198.001, 0.998718, 3.52753e-08, 0.00141101, 0.44666
 537, 199.001, 0.998718, 3.90988e-08, 0.00156395, 0.44666
 540, 200.001, 0.998717, 4.33179e-08, 0.00173272, 0.446661
 543, 201.001, 0.998717, 4.79716e-08, 0.00191886, 0.446662
 546, 202.001, 0.998717, 5.31023e-08, 0.00212409, 0.446664
 549, 203.001, 0.998717, 5.87568e-08, 0.00235027, 0.446665
 552, 204.001, 0.998717, 6.49857e-08, 0.00259943, 0.446666
 555, 205.001, 0.998717, 7.18447e-08, 0.00287379, 0.446668
 558, 206.001, 0.998716, 7.93944e-08, 0.00317578, 0.446669
 561, 207.001, 0.998716, 8.77009e-08, 0.00350804, 0.446671
 564, 208.001, 0.998716, 9.68364e-08, 0.00387346, 0.446673
 567, 209.001, 0.998716, 1.0688e-07, 0.00427519, 0.446676
 570, 210.001, 0.998715, 1.17916e-07, 0.00471665, 0.446678
 573, 211.001, 0.998715, 1.3004e-07, 0.00520159, 0.446681
 576, 212.001, 0.998714, 1.43352e-07, 0.00573407, 0.446684
 579, 213.001, 0.998714, 1.57963e-07, 0.00631853, 0.446687
 582, 214.001, 0.998713, 1.73995e-07, 0.00695979, 0.446691
 585, 215.001, 0.998713, 1.91577e-07, 0.00766309, 0.446695
 588, 216.001, 0.998712, 2.10854e-07, 0.00843414, 0.446699
 591, 217.001, 0.998712, 2.31979e-07, 0.00927914, 0.446704
 594, 218.001, 0.998711, 2.55121e-07, 0.0102048, 0.446709
 597, 219.001, 0.99871, 2.80463e-07, 0.0112185, 0.446714
 600, 220.001, 0.998709, 3.08205e-07, 0.0123282, 0.446721
 603, 221.001, 0.998708, 3.38561e-07, 0.0135425, 0.446727
 606, 222.001, 0.998707, 3.71766e-07, 0.0148707, 0.446735
 609, 223.001, 0.998706, 4.08074e-07, 0.016323, 0.446743
 612, 224.001, 0.998705, 4.4776e-07, 0.0179104, 0.446752
 615, 225.001, 0.998703, 4.91122e-07, 0.0196449, 0.446762
 618, 226.001, 0.998702, 5.38483e-07, 0.0215393, 0.446772
 621, 227.001, 0.9987, 5.90195e-07, 0.0236078, 0.446784
 624, 228.001, 0.998698, 6.46636e-07, 0.0258654, 0.446796
 627, 229.001, 0.998696, 7.08216e-07, 0.0283287, 0.44681
 630, 230.001, 0.998694, 7.75381e-07, 0.0310152, 0.446825
 633, 231.001, 0.998692, 8.48609e-07, 0.0339444, 0.446841
 636, 232.001, 0.998689, 9.28422e-07, 0.0371369, 0.446859
 639, 233.001, 0.998686, 1.01538e-06, 0.0406152, 0.446879
 642, 234.001, 0.998683, 1.11009e-06, 0.0444036, 0.4469
 645, 235.001, 0.998679, 1.21321e-06, 0.0485283, 0.446923
 648, 236.001, 0.998676, 1.32544e-06, 0.0530177, 0.446948
 651, 237.001, 0.998671, 1.44756e-06, 0.0579023, 0.446975
 654, 238.001, 0.998667, 1.58038e-06, 0.063215, 0.447004
 657, 239.001, 0.998662, 1.72479e-06, 0.0689915, 0.447037
 660, 240.001, 0.998656, 1.88176e-06, 0.0752702, 0.447071
 663, 241.001, 0.998651, 2.05231e-06, 0.0820924, 0.447109
 666, 242.001, 0.998644, 2.23757e-06, 0.0895028, 0.447151
 669, 243.001, 0.998637, 2.43873e-06, 0.0975493, 0.447195
 672, 244.001, 0.99863, 2.65709e-06, 0.106284, 0.447244
 675, 245.001, 0.998621, 2.89405e-06, 0.115762, 0.447297
 678, 246.001, 0.998612, 3.15109e-06, 0.126044, 0.447354
 681, 247.001, 0.998602, 3.42984e-06, 0.137194, 0.447416
 684, 248.001, 0.998591, 3.73203e-06, 0.149281, 0.447483
 687, 249.001, 0.99858, 4.05953e-06, 0.162381, 0.447555
 690, 250.001, 0.998567, 4.41434e-06, 0.176574, 0.447634
 693, 251.001, 0.998553, 4.79862e-06, 0.191945, 0.447719
 696, 252.001, 0.998538, 5.21469e-06, 0.208588, 0.447812
 699, 253.001, 0.998522, 5.66503e-06, 0.226601, 0.447911
 702, 254.001, 0.998504, 6.15233e-06, 0.246093, 0.448019
 705, 255.001, 0.998485, 6.67944e-06, 0.267177, 0.448136
 708, 256.001, 0.998464, 7.24944e-06, 0.289978, 0.448262
 711, 257.001, 0.998441, 7.86564e-06, 0.314626, 0.448399
 714, 258.001, 0.998417, 8.53158e-06, 0.341263, 0.448546
 717, 259.001, 0.99839, 9.25106e-06, 0.370042, 0.448706
 720, 260.001, 0.998361, 1.00281e-05, 0.401125, 0.448878
 723, 261.001, 0.99833, 1.08672e-05, 0.434687, 0.449063
 726, 262.001, 0.998296, 1.17728e-05, 0.470913, 0.449263
 729, 263.001, 0.998259, 1.27501e-05, 0.510005, 0.449479
 732, 264.001, 0.998219, 1.38044e-05, 0.552176, 0.449712
 735, 265.001, 0.998176, 1.49414e-05, 0.597655, 0.449964
 738, 266.001, 0.99813, 1.61672e-05, 0.646687, 0.450234
 741, 267.001, 0.998079, 1.74884e-05, 0.699535, 0.450526
 744, 268.001, 0.998025, 1.8912e-05, 0.756478, 0.45084
 747, 269.001, 0.997966, 2.04454e-05, 0.817817, 0.451179
 750, 270.001, 0.997902, 2.20968e-05, 0.88387, 0.451543
 753, 271.001, 0.997833, 2.38745e-05, 0.95498, 0.451935
 756, 272.001, 0.997758, 2.57878e-05, 1.03151, 0.452357
 759, 273.001, 0.997678, 2.78464e-05, 1.11385, 0.452811
 762, 274.001, 0.997591, 3.00606e-05, 1.20242, 0.453299
 765, 275.001, 0.997497, 3.24416e-05, 1.29766, 0.453823
 768, 276.001, 0.997396, 3.50012e-05, 1.40005, 0.454387
 771, 277.001, 0.997287, 3.77519e-05, 1.51008, 0.454992
 774, 278.001, 0.99717, 4.07072e-05, 1.62829, 0.455643
 777, 279.001, 0.997043, 4.38815e-05, 1.75526, 0.456341
 780, 280.001, 0.996906, 4.72899e-05, 1.8916, 0.457091
 783, 281.001, 0.996759, 5.09487e-05, 2.03795, 0.457895
 786, 282.001, 0.9966, 5.48751e-05, 2.195, 0.458758
 789, 283.001, 0.996429, 5.90874e-05, 2.3635, 0.459683
 792, 284.001, 0.996245, 6.36053e-05, 2.54421, 0.460676
 795, 285.001, 0.996047, 6.84494e-05, 2.73798, 0.46174
 798, 286.001, 0.995834, 7.36419e-05, 2.94568, 0.462879
 801, 287.001, 0.995605, 7.92061e-05, 3.16824, 0.4641
 804, 288.001, 0.995358, 8.51669e-05, 3.40668, 0.465408
 807, 289.001, 0.995093, 9.15507e-05, 3.66203, 0.466808
 810, 290.001, 0.994809, 9.83855e-05, 3.93542, 0.468306
 813, 291.001, 0.994502, 0.000105701, 4.22804, 0.469909
 816, 292.001, 0.994174, 0.000113529, 4.54114, 0.471624
 819, 293.001, 0.993821, 0.000121902, 4.87607, 0.473458
 822, 294.001, 0.993442, 0.000130856, 5.23422, 0.475418
 825, 295.001, 0.993035, 0.000140428, 5.6171, 0.477513
 828, 296.001, 0.992598, 0.000150657, 6.02629, 0.479751
 831, 297.001, 0.99213, 0.000161586, 6.46345, 0.482141
 834, 298.001, 0.991628, 0.000173259, 6.93034, 0.484692
 837, 299.001, 0.99109, 0.000185721, 7.42885, 0.487416
 840, 300.001, 0.990513, 0.000199023, 7.96092, 0.490321
 843, 301.001, 0.989895, 0.000213216, 8.52863, 0.493421
 846, 302.001, 0.989232, 0.000228354, 9.13417, 0.496725
 849, 303.001, 0.988523, 0.000244496, 9.77984, 0.500247
 852, 304.001, 0.987764, 0.000261701, 10.4681, 0.503999
 855, 305.001, 0.986952, 0.000280034, 11.2014, 0.507996
 858, 306.001, 0.986082, 0.000299561, 11.9824, 0.512252
 861, 307.001, 0.985153, 0.000320352, 12.8141, 0.51678
 864, 308.001, 0.984159, 0.000342482, 13.6993, 0.521599
 867, 309.001, 0.983096, 0.000366026, 14.641, 0.526723
 870, 310.001, 0.981961, 0.000391065, 15.6426, 0.53217
 873, 311.001, 0.980748, 0.000417685, 16.7074, 0.537958
 876, 312.001, 0.979453, 0.000445972, 17.8389, 0.544106
 879, 313.001, 0.97807, 0.000476018, 19.0407, 0.550634
 882, 314.001, 0.976595, 0.000507919, 20.3168, 0.55756
 885, 315.001, 0.97502, 0.000541775, 21.671, 0.564907
 888, 316.001, 0.973342, 0.000577687, 23.1075, 0.572697
 891, 317.001, 0.971552, 0.000615762, 24.6305, 0.580951
 894, 318.001, 0.969644, 0.000656111, 26.2445, 0.589693
 897, 319.001, 0.967612, 0.000698848, 27.9539, 0.598946
 900, 320.001, 0.965448, 0.000744088, 29.7635, 0.608737
 903, 321.001, 0.963145, 0.000791954, 31.6781, 0.619088
 906, 322.001, 0.960693, 0.000842566, 33.7027, 0.630027
 909, 323.001, 0.958086, 0.000896052, 35.8421, 0.641579
 912, 324.001, 0.955314, 0.000952539, 38.1015, 0.653771
 915, 325.001, 0.952367, 0.00101216, 40.4862, 0.666628
 918, 326.001, 0.949237, 0.00107503, 43.0013, 0.680179
 921, 327.001, 0.945913, 0.0011413, 45.6521, 0.694449
 924, 328.001, 0.942385, 0.00121109, 48.4437, 0.709465
 927, 329.001, 0.938642, 0.00128454, 51.3815, 0.725253
 930, 330.001, 0.934673, 0.00136176, 54.4705, 0.741839
 933, 331.001, 0.930467, 0.00144289, 57.7157, 0.759246
 936, 332.001, 0.926011, 0.00152805, 61.122, 0.777499
 939, 333.001, 0.921293, 0.00161735, 64.694, 0.796619
 942, 334.001, 0.916301, 0.0017109, 68.4359, 0.816625
 945, 335.001, 0.911022, 0.00180879, 72.3517, 0.837537
 948, 336.001, 0.905443, 0.00191112, 76.445, 0.859368
 951, 337.001, 0.89955, 0.00201797, 80.7187, 0.88213
 954, 338.001, 0.89333, 0.00212938, 85.1753, 0.905831
 957, 339.001, 0.886768, 0.00224541, 89.8165, 0.930476
 960, 340.001, 0.879851, 0.00236608, 94.6433, 0.956064
 963, 341.001, 0.872566, 0.00249139, 99.6555, 0.982587
 966, 342.001, 0.864897, 0.0026213, 104.852, 1.01003
 969, 343.001, 0.856832, 0.00275577, 110.231, 1.03838
 972, 344.001, 0.848357, 0.0028947, 115.788, 1.06761
 975, 345.001, 0.839458, 0.00303797, 121.519, 1.09767
 978, 346.001, 0.830123, 0.00318542, 127.417, 1.12853
 981, 347.001, 0.82034, 0.00333682, 133.473, 1.16013
 984, 348.001, 0.810097, 0.00349192, 139.677, 1.1924
 987, 349.001, 0.799384, 0.00365041, 146.017, 1.22526
 990, 350.001, 0.78819, 0.00381192, 152.477, 1.25862
 993, 351.001, 0.776508, 0.00397602, 159.041, 1.29237
 996, 352.001, 0.76433, 0.0041422, 165.688, 1.3264
 999, 353.001, 0.751652, 0.00430992, 172.397, 1.36056
 1002, 354.001, 0.738468, 0.00447852, 179.141, 1.3947
 1005, 355.001, 0.724779, 0.00464731, 185.892, 1.42865
 1008, 356.001, 0.710583, 0.00481549, 192.62, 1.46223
 1011, 357.001, 0.695885, 0.0049822, 199.288, 1.49522
 1014, 358.001, 0.680691, 0.00514648, 205.859, 1.52741
 1017, 359.001, 0.665008, 0.00530733, 212.293, 1.55856
 1020, 360.001, 0.64885, 0.00546364, 218.546, 1.58841
 1023, 361.001, 0.632231, 0.00561423, 224.569, 1.61669
 1026, 362.001, 0.61517, 0.00575787, 230.315, 1.64311
 1029, 363.001, 0.59769, 0.00589326, 235.73, 1.66738
 1032, 364.001, 0.579819, 0.00601904, 240.762, 1.68918
 1035, 365.001, 0.561586, 0.00613382, 245.353, 1.70819
 1038, 366.001, 0.543027, 0.00623619, 249.448, 1.7241
 1041, 367.001, 0.524182, 0.00632471, 252.988, 1.73659
 1044, 368.001, 0.505093, 0.00639796, 255.918, 1.74532
 1047, 369.001, 0.48581, 0.00645455, 258.182, 1.75
 1050, 370.001, 0.466383, 0.00649315, 259.726, 1.75034
 1053, 371.001, 0.44687, 0.0065125, 260.5, 1.74605
 1056, 372.001, 0.427329, 0.00651144, 260.458, 1.73689
 1059, 373.001, 0.407823, 0.00648897, 259.559, 1.72266
 1062, 374.001, 0.388418, 0.00644425, 257.77, 1.70317
 1065, 375.001, 0.369181, 0.00637662, 255.065, 1.67831
 1068, 376.001, 0.350182, 0.00628567, 251.427, 1.648
 1071, 377.001, 0.331491, 0.00617123, 246.849, 1.61225
 1074, 378.001, 0.313179, 0.00603344, 241.338, 1.57112
 1077, 379.001, 0.295315, 0.00587271, 234.909, 1.52473
 1080, 380.001, 0.277967, 0.00568981, 227.592, 1.47329
 1083, 381.001, 0.261199, 0.0054858, 219.432, 1.41711
 1086, 382.001, 0.245074, 0.00526212, 210.485, 1.35653
 1089, 383.001, 0.229647, 0.00502053, 200.821, 1.29201
 1092, 384.001, 0.214969, 0.0047631, 190.524, 1.22406
 1095, 385.001, 0.201084, 0.0044922, 179.688, 1.15327
 1098, 386.001, 0.188029, 0.00421047, 168.419, 1.08028
 1101, 387.001, 0.175832, 0.00392076, 156.83, 1.00578
 1104, 388.001, 0.164513, 0.00362608, 145.043, 0.930503
 1107, 389.001, 0.154081, 0.00332956, 133.182, 0.855185
 1110, 390.001, 0.144537, 0.00303433, 121.373, 0.78058
 1113, 391.001, 0.135873, 0.0027435, 109.74, 0.707423
 1116, 392.001, 0.128072, 0.00246006, 98.4022, 0.636414
 1119, 393.001, 0.121105, 0.00218678, 87.4713, 0.568207
 1122, 394.001, 0.114941, 0.00192621, 77.0482, 0.503384
 1125, 395.001, 0.109536, 0.00168051, 67.2206, 0.442451
 1128, 396.001, 0.104843, 0.00145152, 58.0606, 0.385814
 1131, 397.002, 0.100811, 0.00124059, 49.6237, 0.333779
 1134, 398.002, 0.0973828, 0.00104868, 41.9472, 0.286544
 1137, 399.002, 0.0945011, 0.000876258, 35.0503, 0.244196
 1140, 400.002, 0.0921073, 0.000723357, 28.9343, 0.206717
 1143, 401.002, 0.0901433, 0.000589592, 23.5837, 0.173987
 1146, 402.002, 0.0885526, 0.000474202, 18.9681, 0.145801
 1149, 403.002, 0.0872818, 0.000376106, 15.0443, 0.121878
 1152, 404.002, 0.0862809, 0.000293971, 11.7588, 0.101875
 1155, 405.002, 0.0855043, 0.000226277, 9.05109, 0.0854116
 1158, 406.002, 0.0849111, 0.000171397, 6.85588, 0.0720814
 1161, 407.002, 0.0844653, 0.000127662, 5.10648, 0.0614712
 1164, 408.002, 0.084136, 9.34263e-05, 3.73705, 0.0531742
 1167, 409.002, 0.0838971, 6.71221e-05, 2.68488, 0.0468062
 1170, 410.002, 0.083727, 4.73013e-05, 1.89205, 0.0420124
 1173, 411.002, 0.0836083, 3.26662e-05, 1.30665, 0.0384762
 1176, 412.002, 0.0835271, 2.20867e-05, 0.883466, 0.035922
 1179, 413.002, 0.0834728, 1.46062e-05, 0.584249, 0.0341174
 1182, 414.002, 0.0834372, 9.43789e-06, 0.377515, 0.0328717
 1185, 415.002, 0.0834145, 5.95212e-06, 0.238085, 0.0320324
 1188, 416.002, 0.0834003, 3.65966e-06, 0.146386, 0.0314803
 1191, 417.002, 0.0833917, 2.19115e-06, 0.0876459, 0.0311273
 1194, 418.002, 0.0833866, 1.27595e-06, 0.0510379, 0.030907
 1197, 419.002, 0.0833837, 7.21721e-07, 0.0288689, 0.0307739
 1200, 420.002, 0.0833821, 3.96007e-07, 0.0158403, 0.0306955
 1203, 421.002, 0.0833812, 2.10489e-07, 0.00841956, 0.0306512
 1206, 422.002, 0.0833807, 1.08223e-07, 0.00432891, 0.0306264
 1209, 423.002, 0.0833805, 5.37421e-08, 0.00214968, 0.0306133
 1212, 424.002, 0.0833804, 2.57355e-08, 0.00102942, 0.0306069
 1215, 425.002, 0.0833803, 1.18648e-08, 0.00047459, 0.0306032
 1218, 426.002, 0.0833803, 5.25714e-09, 0.000210285, 0.0306017
 1221, 427.002, 0.0833803, 2.23475e-09, 8.93899e-05, 0.0306012
 1224, 428.002, 0.0833803, 9.09678e-10, 3.63871e-05, 0.0306007
 1227, 429.002, 0.0833803, 3.53904e-10, 1.41562e-05, 0.0306006
 1230, 430.002, 0.0833803, 1.31324e-10, 5.25295e-06, 0.0306006
 1233, 431.002, 0.0833803, 4.63819e-11, 1.85528e-06, 0.0306004
 1236, 432.002, 0.0833803, 1.55578e-11, 6.22311e-07, 0.0306007
 1239, 433.002, 0.0833803, 4.94479e-12, 1.97792e-07, 0.0306006
 1242, 434.002, 0.0833803, 1.48565e-12, 5.94261e-08, 0.0306006
 1245, 435.002, 0.0833803, 4.20901e-13, 1.6836e-08, 0.0306006
 1248, 436.002, 0.0833803, 1.12154e-13, 4.48616e-09, 0.0306005
 1251, 437.002, 0.0833803, 2.80321e-14, 1.12129e-09, 0.0306008
 1254, 438.002, 0.0833803, 6.55374e-15, 2.6215e-10, 0.0306004
 1257, 439.002, 0.0833803, 1.42906e-15, 5.71623e-11, 0.0306006
 1260, 440.002, 0.0833803, 2.89749e-16, 1.159e-11, 0.0306006
 1263, 441.002, 0.0833803, 5.44549e-17, 2.1782e-12, 0.0306006
 1266, 442.002, 0.0833803, 9.45518e-18, 3.78207e-13, 0.0306007
 1269, 443.002, 0.0833803, 1.5116e-18, 6.04641e-14, 0.0306008
 1272, 444.002, 0.0833803, 2.21716e-19, 8.86865e-15, 0.0306006
 1275, 445.002, 0.0833803, 2.97265e-20, 1.18906e-15, 0.0306008
 1278, 446.002, 0.0833803, 3.62918e-21, 1.45167e-16, 0.0306005
 1281, 447.002, 0.0833803, 4.01841e-22, 1.60737e-17, 0.0306007
 1284, 448.002, 0.0833803, 4.0186e-23, 1.60744e-18, 0.0306007
 1287, 449.002, 0.0833803, 3.61403e-24, 1.44561e-19, 0.0306005
 1290, 450.002, 0.0833803, 2.90973e-25, 1.16389e-20, 0.0306006
 1293, 451.002, 0.0833803, 2.08749e-26, 8.34996e-22, 0.0306008
 1296, 452.002, 0.0833803, 1.32799e-27, 5.31198e-23, 0.0306007
 1299, 453.002, 0.0833803, 7.45372e-29, 2.98149e-24, 0.0306005
 1302, 454.002, 0.0833803, 3.67174e-30, 1.4687e-25, 0.0306007
 1305, 455.002, 0.0833803, 1.57878e-31, 6.31512e-27, 0.0306008
 1308, 456.002, 0.0833803, 5.8919e-33, 2.35676e-28, 0.0306005
 1311, 457.002, 0.0833803, 1.89719e-34, 7.58874e-30, 0.0306006
 1314, 458.002, 0.0833803, 5.23869e-36, 2.09548e-31, 0.0306008
 1317, 459.002, 0.0833803, 1.23261e-37, 4.93043e-33, 0.0306007
 1320, 460.002, 0.0833803, 0.0000000E+000, 9.81978e-35, 0.0306005
 1323, 461.002, 0.0833803, 0.0000000E+000, 1.64416e-36, 0.0306008
 1326, 462.002, 0.0833803, 0.0000000E+000, 2.29778e-38, 0.0306006
 1329, 463.002, 0.0833803, 0.0000000E+000, 0.0000000E+000, 0.0306007
 1332, 464.002, 0.0833803, 0.0000000E+000, 0.0000000E+000, 0.0306005
 1335, 465.002, 0.0833803, 0.0000000E+000, 0.0000000E+000, 0.0306007
 1338, 466.002, 0.0833803, 0.0000000E+000, 0.0000000E+000, 0.0306008
 1341, 467.002, 0.0833803, 0.0000000E+000, 0.0000000E+000, 0.0306006
 1344, 468.002, 0.0833803, 0.0000000E+000, 0.0000000E+000, 0.0306007
 1347, 469.002, 0.0833803, 0.0000000E+000, 0.0000000E+000, 0.0306007
 1350, 470.002, 0.0833803, 0.0000000E+000, 0.0000000E+000, 0.0306007
 1353, 471.002, 0.0833803, 0.0000000E+000, 0.0000000E+000, 0.0306006
 1356, 472.002, 0.0833803, 0.0000000E+000, 0.0000000E+000, 0.0306006
 1359, 473.002, 0.0833803, 0.0000000E+000, 0.0000000E+000, 0.0306004
 1362, 474.002, 0.0833803, 0.0000000E+000, 0.0000000E+000, 0.0306008
 1365, 475.002, 0.0833803, 0.0000000E+000, 0.0000000E+000, 0.0306006
 1368, 476.002, 0.0833803, 0.0000000E+000, 0.0000000E+000, 0.0306006
 1371, 477.002, 0.0833803, 0.0000000E+000, 0.0000000E+000, 0.0306008
 1374, 478.002, 0.0833803, 0.0000000E+000, 0.0000000E+000, 0.0306006
 1377, 479.002, 0.0833803, 0.0000000E+000, 0.0000000E+000, 0.0306005
 1380, 480.002, 0.0833803, 0.0000000E+000, 0.0000000E+000, 0.0306006
 1383, 481.002, 0.0833803, 0.0000000E+000, 0.0000000E+000, 0.0306005
 1386, 482.002, 0.0833803, 0.0000000E+000, 0.0000000E+000, 0.0306006
 1389, 483.002, 0.0833803, 0.0000000E+000, 0.0000000E+000, 0.0306006
 1392, 484.002, 0.0833803, 0.0000000E+000, 0.0000000E+000, 0.0306004
 1395, 485.002, 0.0833803, 0.0000000E+000, 0.0000000E+000, 0.0306005
 1398, 486.002, 0.0833803, 0.0000000E+000, 0.0000000E+000, 0.0306007
 1401, 487.002, 0.0833803, 0.0000000E+000, 0.0000000E+000, 0.0306005
 1404, 488.002, 0.0833803, 0.0000000E+000, 0.0000000E+000, 0.0306004
 1407, 489.002, 0.0833803, 0.0000000E+000, 0.0000000E+000, 0.0306005
 1410, 490.002, 0.0833803, 0.0000000E+000, 0.0000000E+000, 0.0306006
 1413, 491.002, 0.0833803, 0.0000000E+000, 0.0000000E+000, 0.0306008
 1416, 492.002, 0.0833803, 0.0000000E+000, 0.0000000E+000, 0.0306004
 1419, 493.002, 0.0833803, 0.0000000E+000, 0.0000000E+000, 0.0306005
 1422, 494.002, 0.0833803, 0.0000000E+000, 0.0000000E+000, 0.0306007
 1425, 495.002, 0.0833803, 0.0000000E+000, 0.0000000E+000, 0.0306007
 1428, 496.002, 0.0833803, 0.0000000E+000, 0.0000000E+000, 0.0306007
 1431, 497.002, 0.0833803, 0.0000000E+000, 0.0000000E+000, 0.0306008
 1434, 498.002, 0.0833803, 0.0000000E+000, 0.0000000E+000, 0.0306004
 1437, 499.002, 0.0833803, 0.0000000E+000, 0.0000000E+000, 0.0306006
 1440, 500.002, 0.0833803, 0.0000000E+000, 0.0000000E+000, 0.0306005
 1443, 501.002, 0.0833803, 0.0000000E+000, 0.0000000E+000, 0.0306006
 1446, 502.002, 0.0833803, 0.0000000E+000, 0.0000000E+000, 0.0306005
 1449, 503.002, 0.0833803, 0.0000000E+000, 0.0000000E+000, 0.0306006
 1452, 504.002, 0.0833803, 0.0000000E+000, 0.0000000E+000, 0.0306006
 1455, 505.002, 0.0833803, 0.0000000E+000, 0.0000000E+000, 0.0306006
 1458, 506.002, 0.0833803, 0.0000000E+000, 0.0000000E+000, 0.0306009
 1461, 507.002, 0.0833803, 0.0000000E+000, 0.0000000E+000, 0.0306005
 1464, 508.002, 0.0833803, 0.0000000E+000, 0.0000000E+000, 0.0306006
 1467, 509.002, 0.0833803, 0.0000000E+000, 0.0000000E+000, 0.0306007
 1470, 510.002, 0.0833803, 0.0000000E+000, 0.0000000E+000, 0.0306005
 1473, 511.002, 0.0833803, 0.0000000E+000, 0.0000000E+000, 0.0306008
 1476, 512.002, 0.0833803, 0.0000000E+000, 0.0000000E+000, 0.0306007
 1479, 513.002, 0.0833803, 0.0000000E+000, 0.0000000E+000, 0.0306005
 1482, 514.002, 0.0833803, 0.0000000E+000, 0.0000000E+000, 0.0306007
 1485, 515.002, 0.0833803, 0.0000000E+000, 0.0000000E+000, 0.0306006
 1488, 516.002, 0.0833803, 0.0000000E+000, 0.0000000E+000, 0.0306006
 1491, 517.002, 0.0833803, 0.0000000E+000, 0.0000000E+000, 0.0306006
 1494, 518.002, 0.0833803, 0.0000000E+000, 0.0000000E+000, 0.0306007
 1497, 519.002, 0.0833803, 0.0000000E+000, 0.0000000E+000, 0.0306005
 1500, 520.002, 0.0833803, 0.0000000E+000, 0.0000000E+000, 0.0306004
 1503, 521.002, 0.0833803, 0.0000000E+000, 0.0000000E+000, 0.0306006
 1506, 522.002, 0.0833803, 0.0000000E+000, 0.0000000E+000, 0.0306005
 1509, 523.002, 0.0833803, 0.0000000E+000, 0.0000000E+000, 0.0306008
 1512, 524.002, 0.0833803, 0.0000000E+000, 0.0000000E+000, 0.0306005
 1515, 525.002, 0.0833803, 0.0000000E+000, 0.0000000E+000, 0.0306007
 1518, 526.002, 0.0833803, 0.0000000E+000, 0.0000000E+000, 0.0306006
 1521, 527.002, 0.0833803, 0.0000000E+000, 0.0000000E+000, 0.0306006
 1524, 528.002, 0.0833803, 0.0000000E+000, 0.0000000E+000, 0.0306007
 1527, 529.002, 0.0833803, 0.0000000E+000, 0.0000000E+000, 0.0306009
 1530, 530.002, 0.0833803, 0.0000000E+000, 0.0000000E+000, 0.0306005
 1533, 531.002, 0.0833803, 0.0000000E+000, 0.0000000E+000, 0.0306006
 1536, 532.002, 0.0833803, 0.0000000E+000, 0.0000000E+000, 0.0306007
 1539, 533.002, 0.0833803, 0.0000000E+000, 0.0000000E+000, 0.0306007
 1542, 534.002, 0.0833803, 0.0000000E+000, 0.0000000E+000, 0.0306007
 1545, 535.002, 0.0833803, 0.0000000E+000, 0.0000000E+000, 0.0306007
 1548, 536.002, 0.0833803, 0.0000000E+000, 0.0000000E+000, 0.0306006
 1551, 537.002, 0.0833803, 0.0000000E+000, 0.0000000E+000, 0.0306005
 1554, 538.002, 0.0833803, 0.0000000E+000, 0.0000000E+000, 0.0306008
 1557, 539.002, 0.0833803, 0.0000000E+000, 0.0000000E+000, 0.0306006
 1560, 540.002, 0.0833803, 0.0000000E+000, 0.0000000E+000, 0.0306005
 1563, 541.002, 0.0833803, 0.0000000E+000, 0.0000000E+000, 0.0306006
 1566, 542.002, 0.0833803, 0.0000000E+000, 0.0000000E+000, 0.0306006
 1569, 543.002, 0.0833803, 0.0000000E+000, 0.0000000E+000, 0.0306005
 1572, 544.002, 0.0833803, 0.0000000E+000, 0.0000000E+000, 0.0306007
 1575, 545.002, 0.0833803, 0.0000000E+000, 0.0000000E+000, 0.0306007
 1578, 546.002, 0.0833803, 0.0000000E+000, 0.0000000E+000, 0.0306008
 1581, 547.002, 0.0833803, 0.0000000E+000, 0.0000000E+000, 0.0306007
 1584, 548.002, 0.0833803, 0.0000000E+000, 0.0000000E+000, 0.0306004
 1587, 549.002, 0.0833803, 0.0000000E+000, 0.0000000E+000, 0.0306004
 1590, 550.002, 0.0833803, 0.0000000E+000, 0.0000000E+000, 0.0306006
 1593, 551.002, 0.0833803, 0.0000000E+000, 0.0000000E+000, 0.0306005
 1596, 552.002, 0.0833803, 0.0000000E+000, 0.0000000E+000, 0.0306008
 1599, 553.002, 0.0833803, 0.0000000E+000, 0.0000000E+000, 0.0306007
 1602, 554.002, 0.0833803, 0.0000000E+000, 0.0000000E+000, 0.0306007
 1605, 555.002, 0.0833803, 0.0000000E+000, 0.0000000E+000, 0.0306006
 1608, 556.002, 0.0833803, 0.0000000E+000, 0.0000000E+000, 0.0306007
 1611, 557.002, 0.0833803, 0.0000000E+000, 0.0000000E+000, 0.0306006
 1614, 558.002, 0.0833803, 0.0000000E+000, 0.0000000E+000, 0.0306006
 1617, 559.002, 0.0833803, 0.0000000E+000, 0.0000000E+000, 0.0306004
 1620, 560.002, 0.0833803, 0.0000000E+000, 0.0000000E+000, 0.0306005
 1623, 561.002, 0.0833803, 0.0000000E+000, 0.0000000E+000, 0.0306006
 1626, 562.002, 0.0833803, 0.0000000E+000, 0.0000000E+000, 0.0306005
 1629, 563.002, 0.0833803, 0.0000000E+000, 0.0000000E+000, 0.0306006
 1632, 564.002, 0.0833803, 0.0000000E+000, 0.0000000E+000, 0.0306007
 1635, 565.002, 0.0833803, 0.0000000E+000, 0.0000000E+000, 0.0306005
 1638, 566.002, 0.0833803, 0.0000000E+000, 0.0000000E+000, 0.0306006
 1641, 567.002, 0.0833803, 0.0000000E+000, 0.0000000E+000, 0.0306005
 1644, 568.002, 0.0833803, 0.0000000E+000, 0.0000000E+000, 0.0306007
 1647, 569.002, 0.0833803, 0.0000000E+000, 0.0000000E+000, 0.0306006
 1650, 570.002, 0.0833803, 0.0000000E+000, 0.0000000E+000, 0.0306004
 1653, 571.002, 0.0833803, 0.0000000E+000, 0.0000000E+000, 0.0306004
 1656, 572.002, 0.0833803, 0.0000000E+000, 0.0000000E+000, 0.0306007
 1659, 573.002, 0.0833803, 0.0000000E+000, 0.0000000E+000, 0.0306004
 1662, 574.002, 0.0833803, 0.0000000E+000, 0.0000000E+000, 0.0306004
 1665, 575.002, 0.0833803, 0.0000000E+000, 0.0000000E+000, 0.0306005
 1668, 576.002, 0.0833803, 0.0000000E+000, 0.0000000E+000, 0.0306006
 1671, 577.002, 0.0833803, 0.0000000E+000, 0.0000000E+000, 0.0306006
 1674, 578.002, 0.0833803, 0.0000000E+000, 0.0000000E+000, 0.0306006
 1677, 579.002, 0.0833803, 0.0000000E+000, 0.0000000E+000, 0.0306004
 1680, 580.002, 0.0833803, 0.0000000E+000, 0.0000000E+000, 0.0306007
 1683, 581.002, 0.0833803, 0.0000000E+000, 0.0000000E+000, 0.0306005
 1686, 582.002, 0.0833803, 0.0000000E+000, 0.0000000E+000, 0.0306007
 1689, 583.002, 0.0833803, 0.0000000E+000, 0.0000000E+000, 0.0306005
 1692, 584.002, 0.0833803, 0.0000000E+000, 0.0000000E+000, 0.0306008
 1695, 585.002, 0.0833803, 0.0000000E+000, 0.0000000E+000, 0.0306008
 1698, 586.002, 0.0833803, 0.0000000E+000, 0.0000000E+000, 0.0306005
 1701, 587.002, 0.0833803, 0.0000000E+000, 0.0000000E+000, 0.0306008
 1704, 588.002, 0.0833803, 0.0000000E+000, 0.0000000E+000, 0.0306005
 1707, 589.002, 0.0833803, 0.0000000E+000, 0.0000000E+000, 0.0306005
 1710, 590.002, 0.0833803, 0.0000000E+000, 0.0000000E+000, 0.0306005
 1713, 591.002, 0.0833803, 0.0000000E+000, 0.0000000E+000, 0.0306005
 1716, 592.002, 0.0833803, 0.0000000E+000, 0.0000000E+000, 0.0306006
 1719, 593.002, 0.0833803, 0.0000000E+000, 0.0000000E+000, 0.0306004
 1722, 594.002, 0.0833803, 0.0000000E+000, 0.0000000E+000, 0.0306005
 1725, 595.002, 0.0833803, 0.0000000E+000, 0.0000000E+000, 0.0306005
 1728, 596.002, 0.0833803, 0.0000000E+000, 0.0000000E+000, 0.0306005
 1731, 597.002, 0.0833803, 0.0000000E+000, 0.0000000E+000, 0.0306008
 1734, 598.002, 0.0833803, 0.0000000E+000, 0.0000000E+000, 0.0306007
 1737, 599.002, 0.0833803, 0.0000000E+000, 0.0000000E+000, 0.0306005
 1740, 600.002, 0.0833803, 0.0000000E+000, 0.0000000E+000, 0.0306006
 1743, 601.002, 0.0833803, 0.0000000E+000, 0.0000000E+000, 0.0306006
 1746, 602.002, 0.0833803, 0.0000000E+000, 0.0000000E+000, 0.0306008
 1749, 603.002, 0.0833803, 0.0000000E+000, 0.0000000E+000, 0.0306006
 1752, 604.002, 0.0833803, 0.0000000E+000, 0.0000000E+000, 0.0306006
 1755, 605.002, 0.0833803, 0.0000000E+000, 0.0000000E+000, 0.0306007
 1758, 606.002, 0.0833803, 0.0000000E+000, 0.0000000E+000, 0.0306006
 1761, 607.002, 0.0833803, 0.0000000E+000, 0.0000000E+000, 0.0306006
 1764, 608.002, 0.0833803, 0.0000000E+000, 0.0000000E+000, 0.0306004
 1767, 609.002, 0.0833803, 0.0000000E+000, 0.0000000E+000, 0.0306008
 1770, 610.002, 0.0833803, 0.0000000E+000, 0.0000000E+000, 0.0306006
 1773, 611.002, 0.0833803, 0.0000000E+000, 0.0000000E+000, 0.0306007
 1776, 612.002, 0.0833803, 0.0000000E+000, 0.0000000E+000, 0.0306005
 1779, 613.002, 0.0833803, 0.0000000E+000, 0.0000000E+000, 0.0306006
 1782, 614.002, 0.0833803, 0.0000000E+000, 0.0000000E+000, 0.0306008
 1785, 615.002, 0.0833803, 0.0000000E+000, 0.0000000E+000, 0.0306007
 1788, 616.002, 0.0833803, 0.0000000E+000, 0.0000000E+000, 0.0306007
 1791, 617.002, 0.0833803, 0.0000000E+000, 0.0000000E+000, 0.0306007
 1794, 618.002, 0.0833803, 0.0000000E+000, 0.0000000E+000, 0.0306005
 1797, 619.002, 0.0833803, 0.0000000E+000, 0.0000000E+000, 0.0306006
 1800, 620.002, 0.0833803, 0.0000000E+000, 0.0000000E+000, 0.0306009
 1803, 621.002, 0.0833803, 0.0000000E+000, 0.0000000E+000, 0.0306006
 1806, 622.002, 0.0833803, 0.0000000E+000, 0.0000000E+000, 0.0306008
 1809, 623.002, 0.0833803, 0.0000000E+000, 0.0000000E+000, 0.0306006
 1812, 624.002, 0.0833803, 0.0000000E+000, 0.0000000E+000, 0.0306006
 1815, 625.002, 0.0833803, 0.0000000E+000, 0.0000000E+000, 0.0306006
 1818, 626.002, 0.0833803, 0.0000000E+000, 0.0000000E+000, 0.0306004
 1821, 627.002, 0.0833803, 0.0000000E+000, 0.0000000E+000, 0.0306006
 1824, 628.002, 0.0833803, 0.0000000E+000, 0.0000000E+000, 0.0306008
 1827, 629.002, 0.0833803, 0.0000000E+000, 0.0000000E+000, 0.0306004
 1830, 630.002, 0.0833803, 0.0000000E+000, 0.0000000E+000, 0.0306007
 1833, 631.002, 0.0833803, 0.0000000E+000, 0.0000000E+000, 0.0306008
 1836, 632.002, 0.0833803, 0.0000000E+000, 0.0000000E+000, 0.0306006
 1839, 633.002, 0.0833803, 0.0000000E+000, 0.0000000E+000, 0.0306008
 1842, 634.002, 0.0833803, 0.0000000E+000, 0.0000000E+000, 0.0306008
 1845, 635.002, 0.0833803, 0.0000000E+000, 0.0000000E+000, 0.0306004
 1848, 636.002, 0.0833803, 0.0000000E+000, 0.0000000E+000, 0.0306008
 1851, 637.002, 0.0833803, 0.0000000E+000, 0.0000000E+000, 0.0306004
 1854, 638.002, 0.0833803, 0.0000000E+000, 0.0000000E+000, 0.0306006
 1857, 639.002, 0.0833803, 0.0000000E+000, 0.0000000E+000, 0.0306005
 1860, 640.002, 0.0833803, 0.0000000E+000, 0.0000000E+000, 0.0306005
 1863, 641.002, 0.0833803, 0.0000000E+000, 0.0000000E+000, 0.0306009
 1866, 642.002, 0.0833803, 0.0000000E+000, 0.0000000E+000, 0.0306006
 1869, 643.002, 0.0833803, 0.0000000E+000, 0.0000000E+000, 0.0306005
 1872, 644.002, 0.0833803, 0.0000000E+000, 0.0000000E+000, 0.0306004
 1875, 645.002, 0.0833803, 0.0000000E+000, 0.0000000E+000, 0.0306006
 1878, 646.002, 0.0833803, 0.0000000E+000, 0.0000000E+000, 0.0306006
 1881, 647.002, 0.0833803, 0.0000000E+000, 0.0000000E+000, 0.0306006
 1884, 648.002, 0.0833803, 0.0000000E+000, 0.0000000E+000, 0.0306006
 1887, 649.002, 0.0833803, 0.0000000E+000, 0.0000000E+000, 0.0306007
 1890, 650.002, 0.0833803, 0.0000000E+000, 0.0000000E+000, 0.0306007
 1893, 651.002, 0.0833803, 0.0000000E+000, 0.0000000E+000, 0.0306007
 1896, 652.002, 0.0833803, 0.0000000E+000, 0.0000000E+000, 0.0306008
 1899, 653.002, 0.0833803, 0.0000000E+000, 0.0000000E+000, 0.0306006
 1902, 654.002, 0.0833803, 0.0000000E+000, 0.0000000E+000, 0.0306005
 1905, 655.002, 0.0833803, 0.0000000E+000, 0.0000000E+000, 0.0306006
 1908, 656.002, 0.0833803, 0.0000000E+000, 0.0000000E+000, 0.0306007
 1911, 657.002, 0.0833803, 0.0000000E+000, 0.0000000E+000, 0.0306007
 1914, 658.002, 0.0833803, 0.0000000E+000, 0.0000000E+000, 0.0306004
 1917, 659.002, 0.0833803, 0.0000000E+000, 0.0000000E+000, 0.0306005
 1920, 660.002, 0.0833803, 0.0000000E+000, 0.0000000E+000, 0.0306007
 1923, 661.002, 0.0833803, 0.0000000E+000, 0.0000000E+000, 0.0306006
 1926, 662.002, 0.0833803, 0.0000000E+000, 0.0000000E+000, 0.0306008
 1929, 663.002, 0.0833803, 0.0000000E+000, 0.0000000E+000, 0.0306005
 1932, 664.002, 0.0833803, 0.0000000E+000, 0.0000000E+000, 0.0306009
 1935, 665.002, 0.0833803, 0.0000000E+000, 0.0000000E+000, 0.0306006
 1938, 666.002, 0.0833803, 0.0000000E+000, 0.0000000E+000, 0.0306005
 1941, 667.002, 0.0833803, 0.0000000E+000, 0.0000000E+000, 0.0306004
 1944, 668.002, 0.0833803, 0.0000000E+000, 0.0000000E+000, 0.0306007
 1947, 669.002, 0.0833803, 0.0000000E+000, 0.0000000E+000, 0.0306005
 1950, 670.002, 0.0833803, 0.0000000E+000, 0.0000000E+000, 0.0306005
 1953, 671.002, 0.0833803, 0.0000000E+000, 0.0000000E+000, 0.0306007
 1956, 672.002, 0.0833803, 0.0000000E+000, 0.0000000E+000, 0.0306006
 1959, 673.002, 0.0833803, 0.0000000E+000, 0.0000000E+000, 0.0306007
 1962, 674.002, 0.0833803, 0.0000000E+000, 0.0000000E+000, 0.0306008
 1965, 675.002, 0.0833803, 0.0000000E+000, 0.0000000E+000, 0.0306005
 1968, 676.002, 0.0833803, 0.0000000E+000, 0.0000000E+000, 0.0306005
 1971, 677.002, 0.0833803, 0.0000000E+000, 0.0000000E+000, 0.0306006
 1974, 678.002, 0.0833803, 0.0000000E+000, 0.0000000E+000, 0.0306007
 1977, 679.002, 0.0833803, 0.0000000E+000, 0.0000000E+000, 0.0306006
 1980, 680.002, 0.0833803, 0.0000000E+000, 0.0000000E+000, 0.0306005
 1983, 681.002, 0.0833803, 0.0000000E+000, 0.0000000E+000, 0.0306007
 1986, 682.002, 0.0833803, 0.0000000E+000, 0.0000000E+000, 0.0306005
 1989, 683.002, 0.0833803, 0.0000000E+000, 0.0000000E+000, 0.0306007
 1992, 684.002, 0.0833803, 0.0000000E+000, 0.0000000E+000, 0.0306005
 1995, 685.002, 0.0833803, 0.0000000E+000, 0.0000000E+000, 0.0306006
 1998, 686.002, 0.0833803, 0.0000000E+000, 0.0000000E+000, 0.0306009
 2001, 687.002, 0.0833803, 0.0000000E+000, 0.0000000E+000, 0.0306005
 2004, 688.002, 0.0833803, 0.0000000E+000, 0.0000000E+000, 0.0306005
 2007, 689.002, 0.0833803, 0.0000000E+000, 0.0000000E+000, 0.0306005
 2010, 690.002, 0.0833803, 0.0000000E+000, 0.0000000E+000, 0.0306006
 2013, 691.002, 0.0833803, 0.0000000E+000, 0.0000000E+000, 0.0306006
 2016, 692.002, 0.0833803, 0.0000000E+000, 0.0000000E+000, 0.0306006
 2019, 693.002, 0.0833803, 0.0000000E+000, 0.0000000E+000, 0.0306007
 2022, 694.002, 0.0833803, 0.0000000E+000, 0.0000000E+000, 0.0306006
 2025, 695.002, 0.0833803, 0.0000000E+000, 0.0000000E+000, 0.0306006
 2028, 696.002, 0.0833803, 0.0000000E+000, 0.0000000E+000, 0.0306006
 2031, 697.002, 0.0833803, 0.0000000E+000, 0.0000000E+000, 0.0306006
 2034, 698.002, 0.0833803, 0.0000000E+000, 0.0000000E+000, 0.0306006
 2037, 699.002, 0.0833803, 0.0000000E+000, 0.0000000E+000, 0.0306006
 2040, 700.002, 0.0833803, 0.0000000E+000, 0.0000000E+000, 0.0306006
 2043, 701.002, 0.0833803, 0.0000000E+000, 0.0000000E+000, 0.0306006
 2046, 702.002, 0.0833803, 0.0000000E+000, 0.0000000E+000, 0.0306005
 2049, 703.002, 0.0833803, 0.0000000E+000, 0.0000000E+000, 0.0306006
 2052, 704.002, 0.0833803, 0.0000000E+000, 0.0000000E+000, 0.0306006
 2055, 705.002, 0.0833803, 0.0000000E+000, 0.0000000E+000, 0.0306006
 2058, 706.002, 0.0833803, 0.0000000E+000, 0.0000000E+000, 0.0306006
 2061, 707.002, 0.0833803, 0.0000000E+000, 0.0000000E+000, 0.0306004
 2064, 708.002, 0.0833803, 0.0000000E+000, 0.0000000E+000, 0.0306006
 2067, 709.002, 0.0833803, 0.0000000E+000, 0.0000000E+000, 0.0306006
 2070, 710.002, 0.0833803, 0.0000000E+000, 0.0000000E+000, 0.0306006
 2073, 711.002, 0.0833803, 0.0000000E+000, 0.0000000E+000, 0.0306006
 2076, 712.002, 0.0833803, 0.0000000E+000, 0.0000000E+000, 0.0306007
 2079, 713.002, 0.0833803, 0.0000000E+000, 0.0000000E+000, 0.0306006
 2082, 714.002, 0.0833803, 0.0000000E+000, 0.0000000E+000, 0.0306006
 2085, 715.002, 0.0833803, 0.0000000E+000, 0.0000000E+000, 0.0306005
 2088, 716.002, 0.0833803, 0.0000000E+000, 0.0000000E+000, 0.0306005
 2091, 717.002, 0.0833803, 0.0000000E+000, 0.0000000E+000, 0.0306007
 2094, 718.002, 0.0833803, 0.0000000E+000, 0.0000000E+000, 0.0306006
 2097, 719.002, 0.0833803, 0.0000000E+000, 0.0000000E+000, 0.0306007
 2100, 720.002, 0.0833803, 0.0000000E+000, 0.0000000E+000, 0.0306004
 2103, 721.002, 0.0833803, 0.0000000E+000, 0.0000000E+000, 0.0306006
 2106, 722.002, 0.0833803, 0.0000000E+000, 0.0000000E+000, 0.0306007
 2109, 723.002, 0.0833803, 0.0000000E+000, 0.0000000E+000, 0.0306007
 2112, 724.002, 0.0833803, 0.0000000E+000, 0.0000000E+000, 0.0306005
 2115, 725.002, 0.0833803, 0.0000000E+000, 0.0000000E+000, 0.0306006
 2118, 726.002, 0.0833803, 0.0000000E+000, 0.0000000E+000, 0.0306004
 2121, 727.002, 0.0833803, 0.0000000E+000, 0.0000000E+000, 0.0306004
 2124, 728.002, 0.0833803, 0.0000000E+000, 0.0000000E+000, 0.0306005
 2127, 729.002, 0.0833803, 0.0000000E+000, 0.0000000E+000, 0.0306008
 2130, 730.002, 0.0833803, 0.0000000E+000, 0.0000000E+000, 0.0306004
 2133, 731.002, 0.0833803, 0.0000000E+000, 0.0000000E+000, 0.0306007
 2136, 732.002, 0.0833803, 0.0000000E+000, 0.0000000E+000, 0.0306008
 2139, 733.002, 0.0833803, 0.0000000E+000, 0.0000000E+000, 0.0306007
 2142, 734.002, 0.0833803, 0.0000000E+000, 0.0000000E+000, 0.0306008
 2145, 735.002, 0.0833803, 0.0000000E+000, 0.0000000E+000, 0.0306005
 2148, 736.002, 0.0833803, 0.0000000E+000, 0.0000000E+000, 0.0306006
 2151, 737.002, 0.0833803, 0.0000000E+000, 0.0000000E+000, 0.0306004
 2154, 738.002, 0.0833803, 0.0000000E+000, 0.0000000E+000, 0.0306007
 2157, 739.002, 0.0833803, 0.0000000E+000, 0.0000000E+000, 0.0306005
 2160, 740.002, 0.0833803, 0.0000000E+000, 0.0000000E+000, 0.0306007
 2163, 741.002, 0.0833803, 0.0000000E+000, 0.0000000E+000, 0.0306005
 2166, 742.002, 0.0833803, 0.0000000E+000, 0.0000000E+000, 0.0306007
 2169, 743.002, 0.0833803, 0.0000000E+000, 0.0000000E+000, 0.0306005
 2172, 744.002, 0.0833803, 0.0000000E+000, 0.0000000E+000, 0.0306007
 2175, 745.002, 0.0833803, 0.0000000E+000, 0.0000000E+000, 0.0306005
 2178, 746.002, 0.0833803, 0.0000000E+000, 0.0000000E+000, 0.0306008
 2181, 747.002, 0.0833803, 0.0000000E+000, 0.0000000E+000, 0.0306008
 2184, 748.002, 0.0833803, 0.0000000E+000, 0.0000000E+000, 0.0306006
 2187, 749.002, 0.0833803, 0.0000000E+000, 0.0000000E+000, 0.0306007
 2190, 750.002, 0.0833803, 0.0000000E+000, 0.0000000E+000, 0.0306005
 2193, 751.002, 0.0833803, 0.0000000E+000, 0.0000000E+000, 0.0306005
 2196, 752.002, 0.0833803, 0.0000000E+000, 0.0000000E+000, 0.0306004
 2199, 753.002, 0.0833803, 0.0000000E+000, 0.0000000E+000, 0.0306004
 2202, 754.002, 0.0833803, 0.0000000E+000, 0.0000000E+000, 0.0306006
 2205, 755.002, 0.0833803, 0.0000000E+000, 0.0000000E+000, 0.0306005
 2208, 756.002, 0.0833803, 0.0000000E+000, 0.0000000E+000, 0.0306005
 2211, 757.002, 0.0833803, 0.0000000E+000, 0.0000000E+000, 0.0306011
 2214, 758.002, 0.0833803, 0.0000000E+000, 0.0000000E+000, 0.0306006
 2217, 759.002, 0.0833803, 0.0000000E+000, 0.0000000E+000, 0.0306005
 2220, 760.002, 0.0833803, 0.0000000E+000, 0.0000000E+000, 0.0306005
 2223, 761.002, 0.0833803, 0.0000000E+000, 0.0000000E+000, 0.0306006
 2226, 762.002, 0.0833803, 0.0000000E+000, 0.0000000E+000, 0.0306006
 2229, 763.002, 0.0833803, 0.0000000E+000, 0.0000000E+000, 0.0306005
 2232, 764.002, 0.0833803, 0.0000000E+000, 0.0000000E+000, 0.0306009
 2235, 765.002, 0.0833803, 0.0000000E+000, 0.0000000E+000, 0.0306006
 2238, 766.002, 0.0833803, 0.0000000E+000, 0.0000000E+000, 0.0306008
 2241, 767.002, 0.0833803, 0.0000000E+000, 0.0000000E+000, 0.0306006
 2244, 768.002, 0.0833803, 0.0000000E+000, 0.0000000E+000, 0.0306007
 2247, 769.002, 0.0833803, 0.0000000E+000, 0.0000000E+000, 0.0306007
 2250, 770.002, 0.0833803, 0.0000000E+000, 0.0000000E+000, 0.0306004
 2253, 771.002, 0.0833803, 0.0000000E+000, 0.0000000E+000, 0.030601
 2256, 772.002, 0.0833803, 0.0000000E+000, 0.0000000E+000, 0.0306008
 2259, 773.002, 0.0833803, 0.0000000E+000, 0.0000000E+000, 0.0306009
 2262, 774.002, 0.0833803, 0.0000000E+000, 0.0000000E+000, 0.0306004
 2265, 775.002, 0.0833803, 0.0000000E+000, 0.0000000E+000, 0.0306007
 2268, 776.002, 0.0833803, 0.0000000E+000, 0.0000000E+000, 0.0306006
 2271, 777.002, 0.0833803, 0.0000000E+000, 0.0000000E+000, 0.0306005
 2274, 778.002, 0.0833803, 0.0000000E+000, 0.0000000E+000, 0.0306005
 2277, 779.002, 0.0833803, 0.0000000E+000, 0.0000000E+000, 0.0306004
 2280, 780.002, 0.0833803, 0.0000000E+000, 0.0000000E+000, 0.0306005
 2283, 781.002, 0.0833803, 0.0000000E+000, 0.0000000E+000, 0.0306007
 2286, 782.002, 0.0833803, 0.0000000E+000, 0.0000000E+000, 0.0306002
 2289, 783.002, 0.0833803, 0.0000000E+000, 0.0000000E+000, 0.0306004
 2292, 784.002, 0.0833803, 0.0000000E+000, 0.0000000E+000, 0.0306006
 2295, 785.002, 0.0833803, 0.0000000E+000, 0.0000000E+000, 0.0306005
 2298, 786.002, 0.0833803, 0.0000000E+000, 0.0000000E+000, 0.0306009
 2301, 787.002, 0.0833803, 0.0000000E+000, 0.0000000E+000, 0.0306005
 2304, 788.002, 0.0833803, 0.0000000E+000, 0.0000000E+000, 0.0306007
 2307, 789.002, 0.0833803, 0.0000000E+000, 0.0000000E+000, 0.0306005
 2310, 790.002, 0.0833803, 0.0000000E+000, 0.0000000E+000, 0.0306009
 2313, 791.002, 0.0833803, 0.0000000E+000, 0.0000000E+000, 0.0306005
 2316, 792.002, 0.0833803, 0.0000000E+000, 0.0000000E+000, 0.0306006
 2319, 793.002, 0.0833803, 0.0000000E+000, 0.0000000E+000, 0.0306007
 2322, 794.002, 0.0833803, 0.0000000E+000, 0.0000000E+000, 0.0306007
 2325, 795.002, 0.0833803, 0.0000000E+000, 0.0000000E+000, 0.0306005
 2328, 796.002, 0.0833803, 0.0000000E+000, 0.0000000E+000, 0.0306009
 2331, 797.002, 0.0833803, 0.0000000E+000, 0.0000000E+000, 0.0306006
 2334, 798.002, 0.0833803, 0.0000000E+000, 0.0000000E+000, 0.0306006
 2337, 799.002, 0.0833803, 0.0000000E+000, 0.0000000E+000, 0.0306009
 2340, 800.002, 0.0833803, 0.0000000E+000, 0.0000000E+000, 0.0306006