File: examples/Birch_TGA_Example/tmp/birch_tga_1step_2_hrr.csv
s,kW,kW,kW,kW,kW,kW,kW,kW,kW,kW,kg/s,kg/s,Pa
Time,HRR,Q_RADI,Q_CONV,Q_COND,Q_DIFF,Q_PRES,Q_PART,Q_GEOM,Q_ENTH,Q_TOTAL,MLR_FUEL,MLR_TOTAL,ZONE_1
 0.0000000E+000, 0.0000000E+000, 0.0000000E+000, 0.0000000E+000, 0.0000000E+000, 0.0000000E+000, 0.0000000E+000, 0.0000000E+000, 0.0000000E+000, 0.0000000E+000, 0.0000000E+000, 0.0000000E+000, 0.0000000E+000,-1.42781
 120, 0.0000000E+000, 0.0000000E+000, 0.0000000E+000, 0.0000000E+000,-9.07435e-09, 0.0000000E+000, 0.0000000E+000, 0.0000000E+000, 0.0000000E+000,-9.07435e-09, 3.78991e-21, 7.53832e-09,-1.42781
 240, 0.0000000E+000, 0.0000000E+000, 0.0000000E+000, 0.0000000E+000, 2.68451e-08, 0.0000000E+000, 0.0000000E+000, 0.0000000E+000, 0.0000000E+000, 2.68451e-08, 9.74221e-21, 1.2879e-08,-1.42781
 360, 0.0000000E+000, 0.0000000E+000, 0.0000000E+000, 0.0000000E+000, 1.16287e-07, 0.0000000E+000, 0.0000000E+000, 0.0000000E+000, 0.0000000E+000, 1.16287e-07, 2.44263e-20, 2.16324e-08,-1.42781
 480, 0.0000000E+000, 0.0000000E+000, 0.0000000E+000, 0.0000000E+000, 3.09316e-07, 0.0000000E+000, 0.0000000E+000, 0.0000000E+000, 0.0000000E+000, 3.09316e-07, 5.97901e-20, 3.5678e-08,-1.42781
 600, 0.0000000E+000, 0.0000000E+000, 0.0000000E+000, 0.0000000E+000, 6.89785e-07, 0.0000000E+000, 0.0000000E+000, 0.0000000E+000, 0.0000000E+000, 6.89785e-07, 1.43003e-19, 5.76447e-08,-1.42781
 720, 0.0000000E+000, 0.0000000E+000, 0.0000000E+000, 0.0000000E+000, 1.3872e-06, 0.0000000E+000, 0.0000000E+000, 0.0000000E+000, 0.0000000E+000, 1.3872e-06, 3.3447e-19, 9.08778e-08,-1.42781
 840, 0.0000000E+000, 0.0000000E+000, 0.0000000E+000, 0.0000000E+000, 2.57858e-06, 0.0000000E+000, 0.0000000E+000, 0.0000000E+000, 0.0000000E+000, 2.57858e-06, 7.65601e-19, 1.38903e-07,-1.42781
 960, 0.0000000E+000, 0.0000000E+000, 0.0000000E+000, 0.0000000E+000, 4.45538e-06, 0.0000000E+000, 0.0000000E+000, 0.0000000E+000, 0.0000000E+000, 4.45538e-06, 1.71643e-18, 2.03778e-07,-1.42781
 1080, 0.0000000E+000, 0.0000000E+000, 0.0000000E+000, 0.0000000E+000, 7.11052e-06, 0.0000000E+000, 0.0000000E+000, 0.0000000E+000, 0.0000000E+000, 7.11052e-06, 3.77241e-18, 2.8256e-07,-1.42781
 1200, 0.0000000E+000, 0.0000000E+000, 0.0000000E+000, 0.0000000E+000, 1.03002e-05, 0.0000000E+000, 0.0000000E+000, 0.0000000E+000, 0.0000000E+000, 1.03002e-05, 8.13688e-18, 3.61813e-07,-1.42781
 1320, 0.0000000E+000, 0.0000000E+000, 0.0000000E+000, 0.0000000E+000, 1.31327e-05, 0.0000000E+000, 0.0000000E+000, 0.0000000E+000, 0.0000000E+000, 1.31327e-05, 1.72474e-17, 4.13226e-07,-1.42781
 1440, 0.0000000E+000, 0.0000000E+000, 0.0000000E+000, 0.0000000E+000, 1.40346e-05, 0.0000000E+000, 0.0000000E+000, 0.0000000E+000, 0.0000000E+000, 1.40346e-05, 3.59752e-17, 3.99726e-07,-1.42781
 1560, 0.0000000E+000, 0.0000000E+000, 0.0000000E+000, 0.0000000E+000, 1.16674e-05, 0.0000000E+000, 0.0000000E+000, 0.0000000E+000, 0.0000000E+000, 1.16674e-05, 7.38951e-17, 3.03342e-07,-1.42781
 1680, 0.0000000E+000, 0.0000000E+000, 0.0000000E+000, 0.0000000E+000, 6.75288e-06, 0.0000000E+000, 0.0000000E+000, 0.0000000E+000, 0.0000000E+000, 6.75288e-06, 1.49402e-16, 1.61434e-07,-1.42781
 1800, 0.0000000E+000, 0.0000000E+000, 0.0000000E+000, 0.0000000E+000, 2.31838e-06, 0.0000000E+000, 0.0000000E+000, 0.0000000E+000, 0.0000000E+000, 2.31838e-06, 2.97011e-16, 5.12959e-08,-1.42781
 1920, 0.0000000E+000, 0.0000000E+000, 0.0000000E+000, 0.0000000E+000, 3.76393e-07, 0.0000000E+000, 0.0000000E+000, 0.0000000E+000, 0.0000000E+000, 3.76393e-07, 5.80596e-16, 7.75281e-09,-1.42781
 2040, 0.0000000E+000, 0.0000000E+000, 0.0000000E+000, 0.0000000E+000, 2.09781e-08, 0.0000000E+000, 0.0000000E+000, 0.0000000E+000, 0.0000000E+000, 2.09781e-08, 1.1174e-15, 4.04244e-10,-1.42781
 2160, 0.0000000E+000, 0.0000000E+000, 0.0000000E+000, 0.0000000E+000, 2.55012e-10, 0.0000000E+000, 0.0000000E+000, 0.0000000E+000, 0.0000000E+000, 2.55012e-10, 2.11959e-15, 4.6161e-12,-1.42781
 2280, 0.0000000E+000, 0.0000000E+000, 0.0000000E+000, 0.0000000E+000, 6.40404e-13, 0.0000000E+000, 0.0000000E+000, 0.0000000E+000, 0.0000000E+000, 6.40404e-13, 3.96509e-15, 1.00234e-14,-1.42781
 2400, 0.0000000E+000, 0.0000000E+000, 0.0000000E+000, 0.0000000E+000, 5.59451e-13, 0.0000000E+000, 0.0000000E+000, 0.0000000E+000, 0.0000000E+000, 5.59451e-13, 7.31834e-15, 7.31871e-15,-1.42781
 2520, 0.0000000E+000, 0.0000000E+000, 0.0000000E+000, 0.0000000E+000, 1.07889e-12, 0.0000000E+000, 0.0000000E+000, 0.0000000E+000, 0.0000000E+000, 1.07889e-12, 1.33327e-14, 1.33327e-14,-1.42781
 2640, 0.0000000E+000, 0.0000000E+000, 0.0000000E+000, 0.0000000E+000, 2.04932e-12, 0.0000000E+000, 0.0000000E+000, 0.0000000E+000, 0.0000000E+000, 2.04932e-12, 2.39853e-14, 2.39853e-14,-1.42781
 2760, 0.0000000E+000, 0.0000000E+000, 0.0000000E+000, 0.0000000E+000, 3.83643e-12, 0.0000000E+000, 0.0000000E+000, 0.0000000E+000, 0.0000000E+000, 3.83643e-12, 4.26252e-14, 4.26252e-14,-1.42781
 2880, 0.0000000E+000, 0.0000000E+000, 0.0000000E+000, 0.0000000E+000, 7.08239e-12, 0.0000000E+000, 0.0000000E+000, 0.0000000E+000, 0.0000000E+000, 7.08239e-12, 7.48594e-14, 7.48594e-14,-1.42781
 3000, 0.0000000E+000, 0.0000000E+000, 0.0000000E+000, 0.0000000E+000, 1.29005e-11, 0.0000000E+000, 0.0000000E+000, 0.0000000E+000, 0.0000000E+000, 1.29005e-11, 1.29969e-13, 1.29969e-13,-1.42781
 3120, 0.0000000E+000, 0.0000000E+000, 0.0000000E+000, 0.0000000E+000, 2.31967e-11, 0.0000000E+000, 0.0000000E+000, 0.0000000E+000, 0.0000000E+000, 2.31967e-11, 2.23153e-13, 2.23153e-13,-1.42781
 3240, 0.0000000E+000, 0.0000000E+000, 0.0000000E+000, 0.0000000E+000, 4.11951e-11, 0.0000000E+000, 0.0000000E+000, 0.0000000E+000, 0.0000000E+000, 4.11951e-11, 3.79031e-13, 3.79031e-13,-1.42781
 3360, 0.0000000E+000, 0.0000000E+000, 0.0000000E+000, 0.0000000E+000, 7.22868e-11, 0.0000000E+000, 0.0000000E+000, 0.0000000E+000, 0.0000000E+000, 7.22868e-11, 6.37085e-13, 6.37085e-13,-1.42781
 3480, 0.0000000E+000, 0.0000000E+000, 0.0000000E+000, 0.0000000E+000, 1.25386e-10, 0.0000000E+000, 0.0000000E+000, 0.0000000E+000, 0.0000000E+000, 1.25386e-10, 1.06e-12, 1.06e-12,-1.42781
 3600, 0.0000000E+000, 0.0000000E+000, 0.0000000E+000, 0.0000000E+000, 2.15071e-10, 0.0000000E+000, 0.0000000E+000, 0.0000000E+000, 0.0000000E+000, 2.15071e-10, 1.74632e-12, 1.74632e-12,-1.42781
 3720, 0.0000000E+000, 0.0000000E+000, 0.0000000E+000, 0.0000000E+000, 3.64944e-10, 0.0000000E+000, 0.0000000E+000, 0.0000000E+000, 0.0000000E+000, 3.64944e-10, 2.84956e-12, 2.84956e-12,-1.42781
 3840, 0.0000000E+000, 0.0000000E+000, 0.0000000E+000, 0.0000000E+000, 6.12819e-10, 0.0000000E+000, 0.0000000E+000, 0.0000000E+000, 0.0000000E+000, 6.12819e-10, 4.60668e-12, 4.60668e-12,-1.42781
 3960, 0.0000000E+000, 0.0000000E+000, 0.0000000E+000, 0.0000000E+000, 1.0187e-09, 0.0000000E+000, 0.0000000E+000, 0.0000000E+000, 0.0000000E+000, 1.0187e-09, 7.38018e-12, 7.38018e-12,-1.42781
 4080, 0.0000000E+000, 0.0000000E+000, 0.0000000E+000, 0.0000000E+000, 1.67689e-09, 0.0000000E+000, 0.0000000E+000, 0.0000000E+000, 0.0000000E+000, 1.67689e-09, 1.17199e-11, 1.17199e-11,-1.42781
 4200, 0.0000000E+000, 0.0000000E+000, 0.0000000E+000, 0.0000000E+000, 2.73428e-09, 0.0000000E+000, 0.0000000E+000, 0.0000000E+000, 0.0000000E+000, 2.73428e-09, 1.84531e-11, 1.84531e-11,-1.42781
 4320, 0.0000000E+000, 0.0000000E+000, 0.0000000E+000, 0.0000000E+000, 4.41756e-09, 0.0000000E+000, 0.0000000E+000, 0.0000000E+000, 0.0000000E+000, 4.41756e-09, 2.88137e-11, 2.88137e-11,-1.42781
 4440, 0.0000000E+000, 0.0000000E+000, 0.0000000E+000, 0.0000000E+000, 7.0737e-09, 0.0000000E+000, 0.0000000E+000, 0.0000000E+000, 0.0000000E+000, 7.0737e-09, 4.46289e-11, 4.46289e-11,-1.42781
 4560, 0.0000000E+000, 0.0000000E+000, 0.0000000E+000, 0.0000000E+000, 1.12292e-08, 0.0000000E+000, 0.0000000E+000, 0.0000000E+000, 0.0000000E+000, 1.12292e-08, 6.85826e-11, 6.85826e-11,-1.42781
 4680, 0.0000000E+000, 0.0000000E+000, 0.0000000E+000, 0.0000000E+000, 1.76765e-08, 0.0000000E+000, 0.0000000E+000, 0.0000000E+000, 0.0000000E+000, 1.76765e-08, 1.04588e-10, 1.04588e-10,-1.42781
 4800, 0.0000000E+000, 0.0000000E+000, 0.0000000E+000, 0.0000000E+000, 2.75992e-08, 0.0000000E+000, 0.0000000E+000, 0.0000000E+000, 0.0000000E+000, 2.75992e-08, 1.58312e-10, 1.58312e-10,-1.42781
 4920, 0.0000000E+000, 0.0000000E+000, 0.0000000E+000, 0.0000000E+000, 4.27513e-08, 0.0000000E+000, 0.0000000E+000, 0.0000000E+000, 0.0000000E+000, 4.27513e-08, 2.37897e-10, 2.37897e-10,-1.42781
 5040, 0.0000000E+000, 0.0000000E+000, 0.0000000E+000, 0.0000000E+000, 6.57127e-08, 0.0000000E+000, 0.0000000E+000, 0.0000000E+000, 0.0000000E+000, 6.57127e-08, 3.54969e-10, 3.54969e-10,-1.42781
 5160, 0.0000000E+000, 0.0000000E+000, 0.0000000E+000, 0.0000000E+000, 1.00251e-07, 0.0000000E+000, 0.0000000E+000, 0.0000000E+000, 0.0000000E+000, 1.00251e-07, 5.26016e-10, 5.26016e-10,-1.42781
 5280, 0.0000000E+000, 0.0000000E+000, 0.0000000E+000, 0.0000000E+000, 1.51831e-07, 0.0000000E+000, 0.0000000E+000, 0.0000000E+000, 0.0000000E+000, 1.51831e-07, 7.74266e-10, 7.74266e-10,-1.42781
 5400, 0.0000000E+000, 0.0000000E+000, 0.0000000E+000, 0.0000000E+000, 2.2832e-07, 0.0000000E+000, 0.0000000E+000, 0.0000000E+000, 0.0000000E+000, 2.2832e-07, 1.13224e-09, 1.13224e-09,-1.42781
 5520, 0.0000000E+000, 0.0000000E+000, 0.0000000E+000, 0.0000000E+000, 3.40974e-07, 0.0000000E+000, 0.0000000E+000, 0.0000000E+000, 0.0000000E+000, 3.40974e-07, 1.64518e-09, 1.64518e-09,-1.42781
 5640, 0.0000000E+000, 0.0000000E+000, 0.0000000E+000, 0.0000000E+000, 5.05791e-07, 0.0000000E+000, 0.0000000E+000, 0.0000000E+000, 0.0000000E+000, 5.05791e-07, 2.37565e-09, 2.37565e-09,-1.42781
 5760, 0.0000000E+000, 0.0000000E+000, 0.0000000E+000, 0.0000000E+000, 7.45365e-07, 0.0000000E+000, 0.0000000E+000, 0.0000000E+000, 0.0000000E+000, 7.45365e-07, 3.40967e-09, 3.40967e-09,-1.42781
 5880, 0.0000000E+000, 0.0000000E+000, 0.0000000E+000, 0.0000000E+000, 1.0914e-06, 0.0000000E+000, 0.0000000E+000, 0.0000000E+000, 0.0000000E+000, 1.0914e-06, 4.8648e-09, 4.8648e-09,-1.42781
 6000, 0.0000000E+000, 0.0000000E+000, 0.0000000E+000, 0.0000000E+000, 1.58813e-06, 0.0000000E+000, 0.0000000E+000, 0.0000000E+000, 0.0000000E+000, 1.58813e-06, 6.90083e-09, 6.90083e-09,-1.42781
 6120, 0.0000000E+000, 0.0000000E+000, 0.0000000E+000, 0.0000000E+000, 2.29687e-06, 0.0000000E+000, 0.0000000E+000, 0.0000000E+000, 0.0000000E+000, 2.29687e-06, 9.73367e-09, 9.73367e-09,-1.42781
 6240, 0.0000000E+000, 0.0000000E+000, 0.0000000E+000, 0.0000000E+000, 3.30214e-06, 0.0000000E+000, 0.0000000E+000, 0.0000000E+000, 0.0000000E+000, 3.30214e-06, 1.36535e-08, 1.36535e-08,-1.42781
 6360, 0.0000000E+000, 0.0000000E+000, 0.0000000E+000, 0.0000000E+000, 4.71975e-06, 0.0000000E+000, 0.0000000E+000, 0.0000000E+000, 0.0000000E+000, 4.71975e-06, 1.90482e-08, 1.90482e-08,-1.42781
 6480, 0.0000000E+000, 0.0000000E+000, 0.0000000E+000, 0.0000000E+000, 6.70745e-06, 0.0000000E+000, 0.0000000E+000, 0.0000000E+000, 0.0000000E+000, 6.70745e-06, 2.64333e-08, 2.64333e-08,-1.42781
 6600, 0.0000000E+000, 0.0000000E+000, 0.0000000E+000, 0.0000000E+000, 9.47884e-06, 0.0000000E+000, 0.0000000E+000, 0.0000000E+000, 0.0000000E+000, 9.47884e-06, 3.64901e-08, 3.64901e-08,-1.42781
 6720, 0.0000000E+000, 0.0000000E+000, 0.0000000E+000, 0.0000000E+000, 1.33214e-05, 0.0000000E+000, 0.0000000E+000, 0.0000000E+000, 0.0000000E+000, 1.33214e-05, 5.01139e-08, 5.01139e-08,-1.42781
 6840, 0.0000000E+000, 0.0000000E+000, 0.0000000E+000, 0.0000000E+000, 1.86196e-05, 0.0000000E+000, 0.0000000E+000, 0.0000000E+000, 0.0000000E+000, 1.86196e-05, 6.84743e-08, 6.84743e-08,-1.42781
 6960, 0.0000000E+000, 0.0000000E+000, 0.0000000E+000, 0.0000000E+000, 2.58842e-05, 0.0000000E+000, 0.0000000E+000, 0.0000000E+000, 0.0000000E+000, 2.58842e-05, 9.30892e-08, 9.30892e-08,-1.42781
 7080, 0.0000000E+000, 0.0000000E+000, 0.0000000E+000, 0.0000000E+000, 3.5789e-05, 0.0000000E+000, 0.0000000E+000, 0.0000000E+000, 0.0000000E+000, 3.5789e-05, 1.25915e-07, 1.25915e-07,-1.42781
 7200, 0.0000000E+000, 0.0000000E+000, 0.0000000E+000, 0.0000000E+000, 4.92157e-05, 0.0000000E+000, 0.0000000E+000, 0.0000000E+000, 0.0000000E+000, 4.92157e-05, 1.69454e-07, 1.69454e-07,-1.42781
 7320, 0.0000000E+000, 0.0000000E+000, 0.0000000E+000, 0.0000000E+000, 6.73082e-05, 0.0000000E+000, 0.0000000E+000, 0.0000000E+000, 0.0000000E+000, 6.73082e-05, 2.26879e-07, 2.26879e-07,-1.42781
 7440, 0.0000000E+000, 0.0000000E+000, 0.0000000E+000, 0.0000000E+000, 9.15344e-05, 0.0000000E+000, 0.0000000E+000, 0.0000000E+000, 0.0000000E+000, 9.15344e-05, 3.02171e-07, 3.02171e-07,-1.42781
 7560, 0.0000000E+000, 0.0000000E+000, 0.0000000E+000, 0.0000000E+000, 0.000123756, 0.0000000E+000, 0.0000000E+000, 0.0000000E+000, 0.0000000E+000, 0.000123756, 4.0026e-07, 4.0026e-07,-1.42781
 7680, 0.0000000E+000, 0.0000000E+000, 0.0000000E+000, 0.0000000E+000, 0.000166298, 0.0000000E+000, 0.0000000E+000, 0.0000000E+000, 0.0000000E+000, 0.000166298, 5.27162e-07, 5.27162e-07,-1.42781
 7800, 0.0000000E+000, 0.0000000E+000, 0.0000000E+000, 0.0000000E+000, 0.000222006, 0.0000000E+000, 0.0000000E+000, 0.0000000E+000, 0.0000000E+000, 0.000222006, 6.90067e-07, 6.90067e-07,-1.42781
 7920, 0.0000000E+000, 0.0000000E+000, 0.0000000E+000, 0.0000000E+000, 0.000294282, 0.0000000E+000, 0.0000000E+000, 0.0000000E+000, 0.0000000E+000, 0.000294282, 8.97337e-07, 8.97337e-07,-1.42781
 8040, 0.0000000E+000, 0.0000000E+000, 0.0000000E+000, 0.0000000E+000, 0.000387046, 0.0000000E+000, 0.0000000E+000, 0.0000000E+000, 0.0000000E+000, 0.000387046, 1.15834e-06, 1.15834e-06,-1.42781
 8160, 0.0000000E+000, 0.0000000E+000, 0.0000000E+000, 0.0000000E+000, 0.000504602, 0.0000000E+000, 0.0000000E+000, 0.0000000E+000, 0.0000000E+000, 0.000504602, 1.48297e-06, 1.48297e-06,-1.42781
 8280, 0.0000000E+000, 0.0000000E+000, 0.0000000E+000, 0.0000000E+000, 0.000651317, 0.0000000E+000, 0.0000000E+000, 0.0000000E+000, 0.0000000E+000, 0.000651317, 1.88077e-06, 1.88077e-06,-1.42781
 8400, 0.0000000E+000, 0.0000000E+000, 0.0000000E+000, 0.0000000E+000, 0.000831035, 0.0000000E+000, 0.0000000E+000, 0.0000000E+000, 0.0000000E+000, 0.000831035, 2.3593e-06, 2.3593e-06,-1.42781
 8520, 0.0000000E+000, 0.0000000E+000, 0.0000000E+000, 0.0000000E+000, 0.00104612, 0.0000000E+000, 0.0000000E+000, 0.0000000E+000, 0.0000000E+000, 0.00104612, 2.92171e-06, 2.92171e-06,-1.42781
 8640, 0.0000000E+000, 0.0000000E+000, 0.0000000E+000, 0.0000000E+000, 0.00129605, 0.0000000E+000, 0.0000000E+000, 0.0000000E+000, 0.0000000E+000, 0.00129605, 3.5631e-06, 3.5631e-06,-1.42781
 8760, 0.0000000E+000, 0.0000000E+000, 0.0000000E+000, 0.0000000E+000, 0.00157554, 0.0000000E+000, 0.0000000E+000, 0.0000000E+000, 0.0000000E+000, 0.00157554, 4.26596e-06, 4.26596e-06,-1.42781
 8880, 0.0000000E+000, 0.0000000E+000, 0.0000000E+000, 0.0000000E+000, 0.00187235, 0.0000000E+000, 0.0000000E+000, 0.0000000E+000, 0.0000000E+000, 0.00187235, 4.99479e-06, 4.99479e-06,-1.42781
 9000, 0.0000000E+000, 0.0000000E+000, 0.0000000E+000, 0.0000000E+000, 0.00216523, 0.0000000E+000, 0.0000000E+000, 0.0000000E+000, 0.0000000E+000, 0.00216523, 5.69151e-06, 5.69151e-06,-1.42781
 9120, 0.0000000E+000, 0.0000000E+000, 0.0000000E+000, 0.0000000E+000, 0.00242286, 0.0000000E+000, 0.0000000E+000, 0.0000000E+000, 0.0000000E+000, 0.00242286, 6.27378e-06, 6.27378e-06,-1.42781
 9240, 0.0000000E+000, 0.0000000E+000, 0.0000000E+000, 0.0000000E+000, 0.00260503, 0.0000000E+000, 0.0000000E+000, 0.0000000E+000, 0.0000000E+000, 0.00260503, 6.6401e-06, 6.6401e-06,-1.42781
 9360, 0.0000000E+000, 0.0000000E+000, 0.0000000E+000, 0.0000000E+000, 0.00266785, 0.0000000E+000, 0.0000000E+000, 0.0000000E+000, 0.0000000E+000, 0.00266785, 6.68571e-06, 6.68571e-06,-1.42781
 9480, 0.0000000E+000, 0.0000000E+000, 0.0000000E+000, 0.0000000E+000, 0.00257388, 0.0000000E+000, 0.0000000E+000, 0.0000000E+000, 0.0000000E+000, 0.00257388, 6.33131e-06, 6.33131e-06,-1.42781
 9600, 0.0000000E+000, 0.0000000E+000, 0.0000000E+000, 0.0000000E+000, 0.00230702, 0.0000000E+000, 0.0000000E+000, 0.0000000E+000, 0.0000000E+000, 0.00230702, 5.56061e-06, 5.56061e-06,-1.42781
 9720, 0.0000000E+000, 0.0000000E+000, 0.0000000E+000, 0.0000000E+000, 0.00188775, 0.0000000E+000, 0.0000000E+000, 0.0000000E+000, 0.0000000E+000, 0.00188775, 4.45214e-06, 4.45214e-06,-1.42781
 9840, 0.0000000E+000, 0.0000000E+000, 0.0000000E+000, 0.0000000E+000, 0.00137977, 0.0000000E+000, 0.0000000E+000, 0.0000000E+000, 0.0000000E+000, 0.00137977, 3.18211e-06, 3.18211e-06,-1.42781
 9960, 0.0000000E+000, 0.0000000E+000, 0.0000000E+000, 0.0000000E+000, 0.000877179, 0.0000000E+000, 0.0000000E+000, 0.0000000E+000, 0.0000000E+000, 0.000877179, 1.97908e-06, 1.97908e-06,-1.42781
 10080, 0.0000000E+000, 0.0000000E+000, 0.0000000E+000, 0.0000000E+000, 0.000469812, 0.0000000E+000, 0.0000000E+000, 0.0000000E+000, 0.0000000E+000, 0.000469812, 1.03835e-06, 1.03835e-06,-1.42781
 10200, 0.0000000E+000, 0.0000000E+000, 0.0000000E+000, 0.0000000E+000, 0.000204096, 0.0000000E+000, 0.0000000E+000, 0.0000000E+000, 0.0000000E+000, 0.000204096, 4.42641e-07, 4.42641e-07,-1.42781
 10320, 0.0000000E+000, 0.0000000E+000, 0.0000000E+000, 0.0000000E+000, 6.87369e-05, 0.0000000E+000, 0.0000000E+000, 0.0000000E+000, 0.0000000E+000, 6.87369e-05, 1.46512e-07, 1.46512e-07,-1.42781
 10440, 0.0000000E+000, 0.0000000E+000, 0.0000000E+000, 0.0000000E+000, 1.69987e-05, 0.0000000E+000, 0.0000000E+000, 0.0000000E+000, 0.0000000E+000, 1.69987e-05, 3.56458e-08, 3.56458e-08,-1.42781
 10560, 0.0000000E+000, 0.0000000E+000, 0.0000000E+000, 0.0000000E+000, 2.89089e-06, 0.0000000E+000, 0.0000000E+000, 0.0000000E+000, 0.0000000E+000, 2.89089e-06, 5.96715e-09, 5.96715e-09,-1.42781
 10680, 0.0000000E+000, 0.0000000E+000, 0.0000000E+000, 0.0000000E+000, 3.12323e-07, 0.0000000E+000, 0.0000000E+000, 0.0000000E+000, 0.0000000E+000, 3.12323e-07, 6.34748e-10, 6.34748e-10,-1.42781
 10800, 0.0000000E+000, 0.0000000E+000, 0.0000000E+000, 0.0000000E+000, 1.94824e-08, 0.0000000E+000, 0.0000000E+000, 0.0000000E+000, 0.0000000E+000, 1.94824e-08, 3.89923e-11, 3.89923e-11,-1.42781
 10920, 0.0000000E+000, 0.0000000E+000, 0.0000000E+000, 0.0000000E+000, 6.25558e-10, 0.0000000E+000, 0.0000000E+000, 0.0000000E+000, 0.0000000E+000, 6.25558e-10, 1.23313e-12, 1.23313e-12,-1.42781
 11040, 0.0000000E+000, 0.0000000E+000, 0.0000000E+000, 0.0000000E+000, 9.0072e-12, 0.0000000E+000, 0.0000000E+000, 0.0000000E+000, 0.0000000E+000, 9.0072e-12, 1.74906e-14, 1.74906e-14,-1.42781
 11160, 0.0000000E+000, 0.0000000E+000, 0.0000000E+000, 0.0000000E+000, 4.92853e-14, 0.0000000E+000, 0.0000000E+000, 0.0000000E+000, 0.0000000E+000, 4.92853e-14, 9.42904e-17, 9.42904e-17,-1.42781
 11280, 0.0000000E+000, 0.0000000E+000, 0.0000000E+000, 0.0000000E+000, 8.41403e-17, 0.0000000E+000, 0.0000000E+000, 0.0000000E+000, 0.0000000E+000, 8.41403e-17, 1.58365e-19, 1.58365e-19,-1.42781
 11400, 0.0000000E+000, 0.0000000E+000, 0.0000000E+000, 0.0000000E+000, 5.58652e-20, 0.0000000E+000, 0.0000000E+000, 0.0000000E+000, 0.0000000E+000, 5.58652e-20, 6.52492e-23, 6.52492e-23,-1.42781
 11520, 0.0000000E+000, 0.0000000E+000, 0.0000000E+000, 0.0000000E+000, 4.28971e-24, 0.0000000E+000, 0.0000000E+000, 0.0000000E+000, 0.0000000E+000, 4.28971e-24, 4.94488e-27, 4.94488e-27,-1.42781
 11640, 0.0000000E+000, 0.0000000E+000, 0.0000000E+000, 0.0000000E+000, 4.27772e-29, 0.0000000E+000, 0.0000000E+000, 0.0000000E+000, 0.0000000E+000, 4.27772e-29, 4.86733e-32, 4.86733e-32,-1.42781
 11760, 0.0000000E+000, 0.0000000E+000, 0.0000000E+000, 0.0000000E+000, 3.63163e-35, 0.0000000E+000, 0.0000000E+000, 0.0000000E+000, 0.0000000E+000, 3.63163e-35, 4.07928e-38, 4.07928e-38,-1.42781
 11880, 0.0000000E+000, 0.0000000E+000, 0.0000000E+000, 0.0000000E+000, 1.56746e-42, 0.0000000E+000, 0.0000000E+000, 0.0000000E+000, 0.0000000E+000, 1.56746e-42, 1.73833e-45, 1.73833e-45,-1.42781
 12000, 0.0000000E+000, 0.0000000E+000, 0.0000000E+000, 0.0000000E+000, 1.82391e-51, 0.0000000E+000, 0.0000000E+000, 0.0000000E+000, 0.0000000E+000, 1.82391e-51, 1.9973e-54, 1.9973e-54,-1.42781
 12120, 0.0000000E+000, 0.0000000E+000, 0.0000000E+000, 0.0000000E+000, 2.60115e-62, 0.0000000E+000, 0.0000000E+000, 0.0000000E+000, 0.0000000E+000, 2.60115e-62, 2.81291e-65, 2.81291e-65,-1.42781
 12240, 0.0000000E+000, 0.0000000E+000, 0.0000000E+000, 0.0000000E+000, 1.6863e-75, 0.0000000E+000, 0.0000000E+000, 0.0000000E+000, 0.0000000E+000, 1.6863e-75, 1.80101e-78, 1.80101e-78,-1.42781
 12360, 0.0000000E+000, 0.0000000E+000, 0.0000000E+000, 0.0000000E+000, 1.39905e-91, 0.0000000E+000, 0.0000000E+000, 0.0000000E+000, 0.0000000E+000, 1.39905e-91, 1.47588e-94, 1.47588e-94,-1.42781
 12480, 0.0000000E+000, 0.0000000E+000, 0.0000000E+000, 0.0000000E+000, 2.84511e-111, 0.0000000E+000, 0.0000000E+000, 0.0000000E+000, 0.0000000E+000, 2.84511e-111, 2.96478e-114, 2.96478e-114,-1.42781
 12600, 0.0000000E+000, 0.0000000E+000, 0.0000000E+000, 0.0000000E+000, 1.55009e-135, 0.0000000E+000, 0.0000000E+000, 0.0000000E+000, 0.0000000E+000, 1.55009e-135, 1.59575e-138, 1.59575e-138,-1.42781
 12720, 0.0000000E+000, 0.0000000E+000, 0.0000000E+000, 0.0000000E+000, 1.04279e-165, 0.0000000E+000, 0.0000000E+000, 0.0000000E+000, 0.0000000E+000, 1.04279e-165, 1.06062e-168, 1.06062e-168,-1.42781
 12840, 0.0000000E+000, 0.0000000E+000, 0.0000000E+000, 0.0000000E+000, 9.50972e-204, 0.0000000E+000, 0.0000000E+000, 0.0000000E+000, 0.0000000E+000, 9.50972e-204, 9.55704e-207, 9.55704e-207,-1.42781
 12960, 0.0000000E+000, 0.0000000E+000, 0.0000000E+000, 0.0000000E+000, 9.00524e-253, 0.0000000E+000, 0.0000000E+000, 0.0000000E+000, 0.0000000E+000, 9.00524e-253, 8.94302e-256, 8.94302e-256,-1.42781
 13080, 0.0000000E+000, 0.0000000E+000, 0.0000000E+000, 0.0000000E+000, 0.0000000E+000, 0.0000000E+000, 0.0000000E+000, 0.0000000E+000, 0.0000000E+000, 0.0000000E+000, 0.0000000E+000, 0.0000000E+000,-1.42781
 13200, 0.0000000E+000, 0.0000000E+000, 0.0000000E+000, 0.0000000E+000, 0.0000000E+000, 0.0000000E+000, 0.0000000E+000, 0.0000000E+000, 0.0000000E+000, 0.0000000E+000, 0.0000000E+000, 0.0000000E+000,-1.42781
 13320, 0.0000000E+000, 0.0000000E+000, 0.0000000E+000, 0.0000000E+000, 0.0000000E+000, 0.0000000E+000, 0.0000000E+000, 0.0000000E+000, 0.0000000E+000, 0.0000000E+000, 0.0000000E+000, 0.0000000E+000,-1.42781
 13440, 0.0000000E+000, 0.0000000E+000, 0.0000000E+000, 0.0000000E+000, 0.0000000E+000, 0.0000000E+000, 0.0000000E+000, 0.0000000E+000, 0.0000000E+000, 0.0000000E+000, 0.0000000E+000, 0.0000000E+000,-1.42781
 13560, 0.0000000E+000, 0.0000000E+000, 0.0000000E+000, 0.0000000E+000, 0.0000000E+000, 0.0000000E+000, 0.0000000E+000, 0.0000000E+000, 0.0000000E+000, 0.0000000E+000, 0.0000000E+000, 0.0000000E+000,-1.42781
 13680, 0.0000000E+000, 0.0000000E+000, 0.0000000E+000, 0.0000000E+000, 0.0000000E+000, 0.0000000E+000, 0.0000000E+000, 0.0000000E+000, 0.0000000E+000, 0.0000000E+000, 0.0000000E+000, 0.0000000E+000,-1.42781
 13800, 0.0000000E+000, 0.0000000E+000, 0.0000000E+000, 0.0000000E+000, 0.0000000E+000, 0.0000000E+000, 0.0000000E+000, 0.0000000E+000, 0.0000000E+000, 0.0000000E+000, 0.0000000E+000, 0.0000000E+000,-1.42781
 13920, 0.0000000E+000, 0.0000000E+000, 0.0000000E+000, 0.0000000E+000, 0.0000000E+000, 0.0000000E+000, 0.0000000E+000, 0.0000000E+000, 0.0000000E+000, 0.0000000E+000, 0.0000000E+000, 0.0000000E+000,-1.42781
 14040, 0.0000000E+000, 0.0000000E+000, 0.0000000E+000, 0.0000000E+000, 0.0000000E+000, 0.0000000E+000, 0.0000000E+000, 0.0000000E+000, 0.0000000E+000, 0.0000000E+000, 0.0000000E+000, 0.0000000E+000,-1.42781
 14160, 0.0000000E+000, 0.0000000E+000, 0.0000000E+000, 0.0000000E+000, 0.0000000E+000, 0.0000000E+000, 0.0000000E+000, 0.0000000E+000, 0.0000000E+000, 0.0000000E+000, 0.0000000E+000, 0.0000000E+000,-1.42781
 14280, 0.0000000E+000, 0.0000000E+000, 0.0000000E+000, 0.0000000E+000, 0.0000000E+000, 0.0000000E+000, 0.0000000E+000, 0.0000000E+000, 0.0000000E+000, 0.0000000E+000, 0.0000000E+000, 0.0000000E+000,-1.42781
 14400, 0.0000000E+000, 0.0000000E+000, 0.0000000E+000, 0.0000000E+000, 0.0000000E+000, 0.0000000E+000, 0.0000000E+000, 0.0000000E+000, 0.0000000E+000, 0.0000000E+000, 0.0000000E+000, 0.0000000E+000,-1.42781
 14520, 0.0000000E+000, 0.0000000E+000, 0.0000000E+000, 0.0000000E+000, 0.0000000E+000, 0.0000000E+000, 0.0000000E+000, 0.0000000E+000, 0.0000000E+000, 0.0000000E+000, 0.0000000E+000, 0.0000000E+000,-1.42781
 14640, 0.0000000E+000, 0.0000000E+000, 0.0000000E+000, 0.0000000E+000, 0.0000000E+000, 0.0000000E+000, 0.0000000E+000, 0.0000000E+000, 0.0000000E+000, 0.0000000E+000, 0.0000000E+000, 0.0000000E+000,-1.42781
 14760, 0.0000000E+000, 0.0000000E+000, 0.0000000E+000, 0.0000000E+000, 0.0000000E+000, 0.0000000E+000, 0.0000000E+000, 0.0000000E+000, 0.0000000E+000, 0.0000000E+000, 0.0000000E+000, 0.0000000E+000,-1.42781
 14880, 0.0000000E+000, 0.0000000E+000, 0.0000000E+000, 0.0000000E+000, 0.0000000E+000, 0.0000000E+000, 0.0000000E+000, 0.0000000E+000, 0.0000000E+000, 0.0000000E+000, 0.0000000E+000, 0.0000000E+000,-1.42781
 15000, 0.0000000E+000, 0.0000000E+000, 0.0000000E+000, 0.0000000E+000, 0.0000000E+000, 0.0000000E+000, 0.0000000E+000, 0.0000000E+000, 0.0000000E+000, 0.0000000E+000, 0.0000000E+000, 0.0000000E+000,-1.42781
 15120, 0.0000000E+000, 0.0000000E+000, 0.0000000E+000, 0.0000000E+000, 0.0000000E+000, 0.0000000E+000, 0.0000000E+000, 0.0000000E+000, 0.0000000E+000, 0.0000000E+000, 0.0000000E+000, 0.0000000E+000,-1.42781
 15240, 0.0000000E+000, 0.0000000E+000, 0.0000000E+000, 0.0000000E+000, 0.0000000E+000, 0.0000000E+000, 0.0000000E+000, 0.0000000E+000, 0.0000000E+000, 0.0000000E+000, 0.0000000E+000, 0.0000000E+000,-1.42781
 15360, 0.0000000E+000, 0.0000000E+000, 0.0000000E+000, 0.0000000E+000, 0.0000000E+000, 0.0000000E+000, 0.0000000E+000, 0.0000000E+000, 0.0000000E+000, 0.0000000E+000, 0.0000000E+000, 0.0000000E+000,-1.42781
 15480, 0.0000000E+000, 0.0000000E+000, 0.0000000E+000, 0.0000000E+000, 0.0000000E+000, 0.0000000E+000, 0.0000000E+000, 0.0000000E+000, 0.0000000E+000, 0.0000000E+000, 0.0000000E+000, 0.0000000E+000,-1.42781
 15600, 0.0000000E+000, 0.0000000E+000, 0.0000000E+000, 0.0000000E+000, 0.0000000E+000, 0.0000000E+000, 0.0000000E+000, 0.0000000E+000, 0.0000000E+000, 0.0000000E+000, 0.0000000E+000, 0.0000000E+000,-1.42781
 15720, 0.0000000E+000, 0.0000000E+000, 0.0000000E+000, 0.0000000E+000, 0.0000000E+000, 0.0000000E+000, 0.0000000E+000, 0.0000000E+000, 0.0000000E+000, 0.0000000E+000, 0.0000000E+000, 0.0000000E+000,-1.42781
 15840, 0.0000000E+000, 0.0000000E+000, 0.0000000E+000, 0.0000000E+000, 0.0000000E+000, 0.0000000E+000, 0.0000000E+000, 0.0000000E+000, 0.0000000E+000, 0.0000000E+000, 0.0000000E+000, 0.0000000E+000,-1.42781
 15960, 0.0000000E+000, 0.0000000E+000, 0.0000000E+000, 0.0000000E+000, 0.0000000E+000, 0.0000000E+000, 0.0000000E+000, 0.0000000E+000, 0.0000000E+000, 0.0000000E+000, 0.0000000E+000, 0.0000000E+000,-1.42781
 16080, 0.0000000E+000, 0.0000000E+000, 0.0000000E+000, 0.0000000E+000, 0.0000000E+000, 0.0000000E+000, 0.0000000E+000, 0.0000000E+000, 0.0000000E+000, 0.0000000E+000, 0.0000000E+000, 0.0000000E+000,-1.42781
 16200, 0.0000000E+000, 0.0000000E+000, 0.0000000E+000, 0.0000000E+000, 0.0000000E+000, 0.0000000E+000, 0.0000000E+000, 0.0000000E+000, 0.0000000E+000, 0.0000000E+000, 0.0000000E+000, 0.0000000E+000,-1.42781
 16320, 0.0000000E+000, 0.0000000E+000, 0.0000000E+000, 0.0000000E+000, 0.0000000E+000, 0.0000000E+000, 0.0000000E+000, 0.0000000E+000, 0.0000000E+000, 0.0000000E+000, 0.0000000E+000, 0.0000000E+000,-1.42781
 16440, 0.0000000E+000, 0.0000000E+000, 0.0000000E+000, 0.0000000E+000, 0.0000000E+000, 0.0000000E+000, 0.0000000E+000, 0.0000000E+000, 0.0000000E+000, 0.0000000E+000, 0.0000000E+000, 0.0000000E+000,-1.42781
 16560, 0.0000000E+000, 0.0000000E+000, 0.0000000E+000, 0.0000000E+000, 0.0000000E+000, 0.0000000E+000, 0.0000000E+000, 0.0000000E+000, 0.0000000E+000, 0.0000000E+000, 0.0000000E+000, 0.0000000E+000,-1.42781
 16680, 0.0000000E+000, 0.0000000E+000, 0.0000000E+000, 0.0000000E+000, 0.0000000E+000, 0.0000000E+000, 0.0000000E+000, 0.0000000E+000, 0.0000000E+000, 0.0000000E+000, 0.0000000E+000, 0.0000000E+000,-1.42781
 16800, 0.0000000E+000, 0.0000000E+000, 0.0000000E+000, 0.0000000E+000, 0.0000000E+000, 0.0000000E+000, 0.0000000E+000, 0.0000000E+000, 0.0000000E+000, 0.0000000E+000, 0.0000000E+000, 0.0000000E+000,-1.42781
 16920, 0.0000000E+000, 0.0000000E+000, 0.0000000E+000, 0.0000000E+000, 0.0000000E+000, 0.0000000E+000, 0.0000000E+000, 0.0000000E+000, 0.0000000E+000, 0.0000000E+000, 0.0000000E+000, 0.0000000E+000,-1.42781
 17040, 0.0000000E+000, 0.0000000E+000, 0.0000000E+000, 0.0000000E+000, 0.0000000E+000, 0.0000000E+000, 0.0000000E+000, 0.0000000E+000, 0.0000000E+000, 0.0000000E+000, 0.0000000E+000, 0.0000000E+000,-1.42781
 17160, 0.0000000E+000, 0.0000000E+000, 0.0000000E+000, 0.0000000E+000, 0.0000000E+000, 0.0000000E+000, 0.0000000E+000, 0.0000000E+000, 0.0000000E+000, 0.0000000E+000, 0.0000000E+000, 0.0000000E+000,-1.42781
 17280, 0.0000000E+000, 0.0000000E+000, 0.0000000E+000, 0.0000000E+000, 0.0000000E+000, 0.0000000E+000, 0.0000000E+000, 0.0000000E+000, 0.0000000E+000, 0.0000000E+000, 0.0000000E+000, 0.0000000E+000,-1.42781
 17400, 0.0000000E+000, 0.0000000E+000, 0.0000000E+000, 0.0000000E+000, 0.0000000E+000, 0.0000000E+000, 0.0000000E+000, 0.0000000E+000, 0.0000000E+000, 0.0000000E+000, 0.0000000E+000, 0.0000000E+000,-1.42781
 17520, 0.0000000E+000, 0.0000000E+000, 0.0000000E+000, 0.0000000E+000, 0.0000000E+000, 0.0000000E+000, 0.0000000E+000, 0.0000000E+000, 0.0000000E+000, 0.0000000E+000, 0.0000000E+000, 0.0000000E+000,-1.42781
 17640, 0.0000000E+000, 0.0000000E+000, 0.0000000E+000, 0.0000000E+000, 0.0000000E+000, 0.0000000E+000, 0.0000000E+000, 0.0000000E+000, 0.0000000E+000, 0.0000000E+000, 0.0000000E+000, 0.0000000E+000,-1.42781
 17760, 0.0000000E+000, 0.0000000E+000, 0.0000000E+000, 0.0000000E+000, 0.0000000E+000, 0.0000000E+000, 0.0000000E+000, 0.0000000E+000, 0.0000000E+000, 0.0000000E+000, 0.0000000E+000, 0.0000000E+000,-1.42781
 17880, 0.0000000E+000, 0.0000000E+000, 0.0000000E+000, 0.0000000E+000, 0.0000000E+000, 0.0000000E+000, 0.0000000E+000, 0.0000000E+000, 0.0000000E+000, 0.0000000E+000, 0.0000000E+000, 0.0000000E+000,-1.42781
 18000, 0.0000000E+000, 0.0000000E+000, 0.0000000E+000, 0.0000000E+000, 0.0000000E+000, 0.0000000E+000, 0.0000000E+000, 0.0000000E+000, 0.0000000E+000, 0.0000000E+000, 0.0000000E+000, 0.0000000E+000,-1.42781
 18120, 0.0000000E+000, 0.0000000E+000, 0.0000000E+000, 0.0000000E+000, 0.0000000E+000, 0.0000000E+000, 0.0000000E+000, 0.0000000E+000, 0.0000000E+000, 0.0000000E+000, 0.0000000E+000, 0.0000000E+000,-1.42781
 18240, 0.0000000E+000, 0.0000000E+000, 0.0000000E+000, 0.0000000E+000, 0.0000000E+000, 0.0000000E+000, 0.0000000E+000, 0.0000000E+000, 0.0000000E+000, 0.0000000E+000, 0.0000000E+000, 0.0000000E+000,-1.42781
 18360, 0.0000000E+000, 0.0000000E+000, 0.0000000E+000, 0.0000000E+000, 0.0000000E+000, 0.0000000E+000, 0.0000000E+000, 0.0000000E+000, 0.0000000E+000, 0.0000000E+000, 0.0000000E+000, 0.0000000E+000,-1.42781
 18480, 0.0000000E+000, 0.0000000E+000, 0.0000000E+000, 0.0000000E+000, 0.0000000E+000, 0.0000000E+000, 0.0000000E+000, 0.0000000E+000, 0.0000000E+000, 0.0000000E+000, 0.0000000E+000, 0.0000000E+000,-1.42781
 18600, 0.0000000E+000, 0.0000000E+000, 0.0000000E+000, 0.0000000E+000, 0.0000000E+000, 0.0000000E+000, 0.0000000E+000, 0.0000000E+000, 0.0000000E+000, 0.0000000E+000, 0.0000000E+000, 0.0000000E+000,-1.42781
 18720, 0.0000000E+000, 0.0000000E+000, 0.0000000E+000, 0.0000000E+000, 0.0000000E+000, 0.0000000E+000, 0.0000000E+000, 0.0000000E+000, 0.0000000E+000, 0.0000000E+000, 0.0000000E+000, 0.0000000E+000,-1.42781
 18840, 0.0000000E+000, 0.0000000E+000, 0.0000000E+000, 0.0000000E+000, 0.0000000E+000, 0.0000000E+000, 0.0000000E+000, 0.0000000E+000, 0.0000000E+000, 0.0000000E+000, 0.0000000E+000, 0.0000000E+000,-1.42781
 18960, 0.0000000E+000, 0.0000000E+000, 0.0000000E+000, 0.0000000E+000, 0.0000000E+000, 0.0000000E+000, 0.0000000E+000, 0.0000000E+000, 0.0000000E+000, 0.0000000E+000, 0.0000000E+000, 0.0000000E+000,-1.42781
 19080, 0.0000000E+000, 0.0000000E+000, 0.0000000E+000, 0.0000000E+000, 0.0000000E+000, 0.0000000E+000, 0.0000000E+000, 0.0000000E+000, 0.0000000E+000, 0.0000000E+000, 0.0000000E+000, 0.0000000E+000,-1.42781
 19200, 0.0000000E+000, 0.0000000E+000, 0.0000000E+000, 0.0000000E+000, 0.0000000E+000, 0.0000000E+000, 0.0000000E+000, 0.0000000E+000, 0.0000000E+000, 0.0000000E+000, 0.0000000E+000, 0.0000000E+000,-1.42781
 19320, 0.0000000E+000, 0.0000000E+000, 0.0000000E+000, 0.0000000E+000, 0.0000000E+000, 0.0000000E+000, 0.0000000E+000, 0.0000000E+000, 0.0000000E+000, 0.0000000E+000, 0.0000000E+000, 0.0000000E+000,-1.42781
 19440, 0.0000000E+000, 0.0000000E+000, 0.0000000E+000, 0.0000000E+000, 0.0000000E+000, 0.0000000E+000, 0.0000000E+000, 0.0000000E+000, 0.0000000E+000, 0.0000000E+000, 0.0000000E+000, 0.0000000E+000,-1.42781
 19560, 0.0000000E+000, 0.0000000E+000, 0.0000000E+000, 0.0000000E+000, 0.0000000E+000, 0.0000000E+000, 0.0000000E+000, 0.0000000E+000, 0.0000000E+000, 0.0000000E+000, 0.0000000E+000, 0.0000000E+000,-1.42781
 19680, 0.0000000E+000, 0.0000000E+000, 0.0000000E+000, 0.0000000E+000, 0.0000000E+000, 0.0000000E+000, 0.0000000E+000, 0.0000000E+000, 0.0000000E+000, 0.0000000E+000, 0.0000000E+000, 0.0000000E+000,-1.42781
 19800, 0.0000000E+000, 0.0000000E+000, 0.0000000E+000, 0.0000000E+000, 0.0000000E+000, 0.0000000E+000, 0.0000000E+000, 0.0000000E+000, 0.0000000E+000, 0.0000000E+000, 0.0000000E+000, 0.0000000E+000,-1.42781
 19920, 0.0000000E+000, 0.0000000E+000, 0.0000000E+000, 0.0000000E+000, 0.0000000E+000, 0.0000000E+000, 0.0000000E+000, 0.0000000E+000, 0.0000000E+000, 0.0000000E+000, 0.0000000E+000, 0.0000000E+000,-1.42781
 20040, 0.0000000E+000, 0.0000000E+000, 0.0000000E+000, 0.0000000E+000, 0.0000000E+000, 0.0000000E+000, 0.0000000E+000, 0.0000000E+000, 0.0000000E+000, 0.0000000E+000, 0.0000000E+000, 0.0000000E+000,-1.42781
 20160, 0.0000000E+000, 0.0000000E+000, 0.0000000E+000, 0.0000000E+000, 0.0000000E+000, 0.0000000E+000, 0.0000000E+000, 0.0000000E+000, 0.0000000E+000, 0.0000000E+000, 0.0000000E+000, 0.0000000E+000,-1.42781
 20280, 0.0000000E+000, 0.0000000E+000, 0.0000000E+000, 0.0000000E+000, 0.0000000E+000, 0.0000000E+000, 0.0000000E+000, 0.0000000E+000, 0.0000000E+000, 0.0000000E+000, 0.0000000E+000, 0.0000000E+000,-1.42781
 20400, 0.0000000E+000, 0.0000000E+000, 0.0000000E+000, 0.0000000E+000, 0.0000000E+000, 0.0000000E+000, 0.0000000E+000, 0.0000000E+000, 0.0000000E+000, 0.0000000E+000, 0.0000000E+000, 0.0000000E+000,-1.42781
 20520, 0.0000000E+000, 0.0000000E+000, 0.0000000E+000, 0.0000000E+000, 0.0000000E+000, 0.0000000E+000, 0.0000000E+000, 0.0000000E+000, 0.0000000E+000, 0.0000000E+000, 0.0000000E+000, 0.0000000E+000,-1.42781
 20640, 0.0000000E+000, 0.0000000E+000, 0.0000000E+000, 0.0000000E+000, 0.0000000E+000, 0.0000000E+000, 0.0000000E+000, 0.0000000E+000, 0.0000000E+000, 0.0000000E+000, 0.0000000E+000, 0.0000000E+000,-1.42781
 20760, 0.0000000E+000, 0.0000000E+000, 0.0000000E+000, 0.0000000E+000, 0.0000000E+000, 0.0000000E+000, 0.0000000E+000, 0.0000000E+000, 0.0000000E+000, 0.0000000E+000, 0.0000000E+000, 0.0000000E+000,-1.42781
 20880, 0.0000000E+000, 0.0000000E+000, 0.0000000E+000, 0.0000000E+000, 0.0000000E+000, 0.0000000E+000, 0.0000000E+000, 0.0000000E+000, 0.0000000E+000, 0.0000000E+000, 0.0000000E+000, 0.0000000E+000,-1.42781
 21000, 0.0000000E+000, 0.0000000E+000, 0.0000000E+000, 0.0000000E+000, 0.0000000E+000, 0.0000000E+000, 0.0000000E+000, 0.0000000E+000, 0.0000000E+000, 0.0000000E+000, 0.0000000E+000, 0.0000000E+000,-1.42781
 21120, 0.0000000E+000, 0.0000000E+000, 0.0000000E+000, 0.0000000E+000, 0.0000000E+000, 0.0000000E+000, 0.0000000E+000, 0.0000000E+000, 0.0000000E+000, 0.0000000E+000, 0.0000000E+000, 0.0000000E+000,-1.42781
 21240, 0.0000000E+000, 0.0000000E+000, 0.0000000E+000, 0.0000000E+000, 0.0000000E+000, 0.0000000E+000, 0.0000000E+000, 0.0000000E+000, 0.0000000E+000, 0.0000000E+000, 0.0000000E+000, 0.0000000E+000,-1.42781
 21360, 0.0000000E+000, 0.0000000E+000, 0.0000000E+000, 0.0000000E+000, 0.0000000E+000, 0.0000000E+000, 0.0000000E+000, 0.0000000E+000, 0.0000000E+000, 0.0000000E+000, 0.0000000E+000, 0.0000000E+000,-1.42781
 21480, 0.0000000E+000, 0.0000000E+000, 0.0000000E+000, 0.0000000E+000, 0.0000000E+000, 0.0000000E+000, 0.0000000E+000, 0.0000000E+000, 0.0000000E+000, 0.0000000E+000, 0.0000000E+000, 0.0000000E+000,-1.42781
 21600, 0.0000000E+000, 0.0000000E+000, 0.0000000E+000, 0.0000000E+000, 0.0000000E+000, 0.0000000E+000, 0.0000000E+000, 0.0000000E+000, 0.0000000E+000, 0.0000000E+000, 0.0000000E+000, 0.0000000E+000,-1.42781
 21720, 0.0000000E+000, 0.0000000E+000, 0.0000000E+000, 0.0000000E+000, 0.0000000E+000, 0.0000000E+000, 0.0000000E+000, 0.0000000E+000, 0.0000000E+000, 0.0000000E+000, 0.0000000E+000, 0.0000000E+000,-1.42781
 21840, 0.0000000E+000, 0.0000000E+000, 0.0000000E+000, 0.0000000E+000, 0.0000000E+000, 0.0000000E+000, 0.0000000E+000, 0.0000000E+000, 0.0000000E+000, 0.0000000E+000, 0.0000000E+000, 0.0000000E+000,-1.42781
 21960, 0.0000000E+000, 0.0000000E+000, 0.0000000E+000, 0.0000000E+000, 0.0000000E+000, 0.0000000E+000, 0.0000000E+000, 0.0000000E+000, 0.0000000E+000, 0.0000000E+000, 0.0000000E+000, 0.0000000E+000,-1.42781
 22080, 0.0000000E+000, 0.0000000E+000, 0.0000000E+000, 0.0000000E+000, 0.0000000E+000, 0.0000000E+000, 0.0000000E+000, 0.0000000E+000, 0.0000000E+000, 0.0000000E+000, 0.0000000E+000, 0.0000000E+000,-1.42781
 22200, 0.0000000E+000, 0.0000000E+000, 0.0000000E+000, 0.0000000E+000, 0.0000000E+000, 0.0000000E+000, 0.0000000E+000, 0.0000000E+000, 0.0000000E+000, 0.0000000E+000, 0.0000000E+000, 0.0000000E+000,-1.42781
 22320, 0.0000000E+000, 0.0000000E+000, 0.0000000E+000, 0.0000000E+000, 0.0000000E+000, 0.0000000E+000, 0.0000000E+000, 0.0000000E+000, 0.0000000E+000, 0.0000000E+000, 0.0000000E+000, 0.0000000E+000,-1.42781
 22440, 0.0000000E+000, 0.0000000E+000, 0.0000000E+000, 0.0000000E+000, 0.0000000E+000, 0.0000000E+000, 0.0000000E+000, 0.0000000E+000, 0.0000000E+000, 0.0000000E+000, 0.0000000E+000, 0.0000000E+000,-1.42781
 22560, 0.0000000E+000, 0.0000000E+000, 0.0000000E+000, 0.0000000E+000, 0.0000000E+000, 0.0000000E+000, 0.0000000E+000, 0.0000000E+000, 0.0000000E+000, 0.0000000E+000, 0.0000000E+000, 0.0000000E+000,-1.42781
 22680, 0.0000000E+000, 0.0000000E+000, 0.0000000E+000, 0.0000000E+000, 0.0000000E+000, 0.0000000E+000, 0.0000000E+000, 0.0000000E+000, 0.0000000E+000, 0.0000000E+000, 0.0000000E+000, 0.0000000E+000,-1.42781
 22800, 0.0000000E+000, 0.0000000E+000, 0.0000000E+000, 0.0000000E+000, 0.0000000E+000, 0.0000000E+000, 0.0000000E+000, 0.0000000E+000, 0.0000000E+000, 0.0000000E+000, 0.0000000E+000, 0.0000000E+000,-1.42781
 22920, 0.0000000E+000, 0.0000000E+000, 0.0000000E+000, 0.0000000E+000, 0.0000000E+000, 0.0000000E+000, 0.0000000E+000, 0.0000000E+000, 0.0000000E+000, 0.0000000E+000, 0.0000000E+000, 0.0000000E+000,-1.42781
 23040, 0.0000000E+000, 0.0000000E+000, 0.0000000E+000, 0.0000000E+000, 0.0000000E+000, 0.0000000E+000, 0.0000000E+000, 0.0000000E+000, 0.0000000E+000, 0.0000000E+000, 0.0000000E+000, 0.0000000E+000,-1.42781
 23160, 0.0000000E+000, 0.0000000E+000, 0.0000000E+000, 0.0000000E+000, 0.0000000E+000, 0.0000000E+000, 0.0000000E+000, 0.0000000E+000, 0.0000000E+000, 0.0000000E+000, 0.0000000E+000, 0.0000000E+000,-1.42781
 23280, 0.0000000E+000, 0.0000000E+000, 0.0000000E+000, 0.0000000E+000, 0.0000000E+000, 0.0000000E+000, 0.0000000E+000, 0.0000000E+000, 0.0000000E+000, 0.0000000E+000, 0.0000000E+000, 0.0000000E+000,-1.42781
 23400, 0.0000000E+000, 0.0000000E+000, 0.0000000E+000, 0.0000000E+000, 0.0000000E+000, 0.0000000E+000, 0.0000000E+000, 0.0000000E+000, 0.0000000E+000, 0.0000000E+000, 0.0000000E+000, 0.0000000E+000,-1.42781
 23520, 0.0000000E+000, 0.0000000E+000, 0.0000000E+000, 0.0000000E+000, 0.0000000E+000, 0.0000000E+000, 0.0000000E+000, 0.0000000E+000, 0.0000000E+000, 0.0000000E+000, 0.0000000E+000, 0.0000000E+000,-1.42781
 23640, 0.0000000E+000, 0.0000000E+000, 0.0000000E+000, 0.0000000E+000, 0.0000000E+000, 0.0000000E+000, 0.0000000E+000, 0.0000000E+000, 0.0000000E+000, 0.0000000E+000, 0.0000000E+000, 0.0000000E+000,-1.42781
 23760, 0.0000000E+000, 0.0000000E+000, 0.0000000E+000, 0.0000000E+000, 0.0000000E+000, 0.0000000E+000, 0.0000000E+000, 0.0000000E+000, 0.0000000E+000, 0.0000000E+000, 0.0000000E+000, 0.0000000E+000,-1.42781
 23880, 0.0000000E+000, 0.0000000E+000, 0.0000000E+000, 0.0000000E+000, 0.0000000E+000, 0.0000000E+000, 0.0000000E+000, 0.0000000E+000, 0.0000000E+000, 0.0000000E+000, 0.0000000E+000, 0.0000000E+000,-1.42781
 24000, 0.0000000E+000, 0.0000000E+000, 0.0000000E+000, 0.0000000E+000, 0.0000000E+000, 0.0000000E+000, 0.0000000E+000, 0.0000000E+000, 0.0000000E+000, 0.0000000E+000, 0.0000000E+000, 0.0000000E+000,-1.42781