File: examples/Birch_TGA_Example/tmp/birch_tga_1step_2_devc.csv
s,kg/m2,C,C
Time,"null","null","null"
 0.0000000E+000, 0.00556892, 20, 20
 24, 0.00556889, 20.42, 20.3286
 48, 0.00556882, 21.22, 21.1267
 72, 0.00556875, 22.02, 21.927
 96, 0.00556868, 22.82, 22.7272
 120, 0.00556859, 23.62, 23.5275
 144, 0.0055685, 24.42, 24.3277
 168, 0.00556839, 25.22, 25.1279
 192, 0.00556827, 26.02, 25.928
 216, 0.00556814, 26.82, 26.7282
 240, 0.00556799, 27.62, 27.5283
 264, 0.00556783, 28.42, 28.3284
 288, 0.00556765, 29.22, 29.1285
 312, 0.00556745, 30.02, 29.9285
 336, 0.00556722, 30.82, 30.7286
 360, 0.00556698, 31.62, 31.5285
 384, 0.0055667, 32.42, 32.3285
 408, 0.0055664, 33.22, 33.1284
 432, 0.00556606, 34.02, 33.9283
 456, 0.00556569, 34.82, 34.7281
 480, 0.00556528, 35.62, 35.5279
 504, 0.00556483, 36.42, 36.3277
 528, 0.00556434, 37.22, 37.1274
 552, 0.00556379, 38.02, 37.927
 576, 0.00556319, 38.82, 38.7266
 600, 0.00556253, 39.62, 39.5261
 624, 0.0055618, 40.42, 40.3256
 648, 0.005561, 41.22, 41.125
 672, 0.00556013, 42.02, 41.9243
 696, 0.00555917, 42.82, 42.7236
 720, 0.00555813, 43.62, 43.5228
 744, 0.00555699, 44.42, 44.3219
 768, 0.00555574, 45.22, 45.1209
 792, 0.00555438, 46.02, 45.9199
 816, 0.00555291, 46.82, 46.7187
 840, 0.0055513, 47.62, 47.5175
 864, 0.00554957, 48.42, 48.3162
 888, 0.00554768, 49.22, 49.1149
 912, 0.00554565, 50.02, 49.9134
 936, 0.00554345, 50.82, 50.7119
 960, 0.00554109, 51.62, 51.5103
 984, 0.00553855, 52.42, 52.3087
 1008, 0.00553583, 53.22, 53.107
 1032, 0.00553293, 54.02, 53.9053
 1056, 0.00552983, 54.82, 54.7035
 1080, 0.00552653, 55.62, 55.5018
 1104, 0.00552304, 56.42, 56.3001
 1128, 0.00551934, 57.22, 57.0984
 1152, 0.00551546, 58.02, 57.8968
 1176, 0.00551138, 58.82, 58.6953
 1200, 0.00550712, 59.62, 59.4939
 1224, 0.0055027, 60.42, 60.2927
 1248, 0.00549811, 61.22, 61.0917
 1272, 0.00549339, 62.02, 61.891
 1296, 0.00548855, 62.82, 62.6905
 1320, 0.00548363, 63.62, 63.4903
 1344, 0.00547864, 64.42, 64.2905
 1368, 0.00547364, 65.22, 65.0911
 1392, 0.00546864, 66.02, 65.8921
 1416, 0.00546369, 66.82, 66.6935
 1440, 0.00545884, 67.62, 67.4953
 1464, 0.00545412, 68.42, 68.2975
 1488, 0.00544957, 69.22, 69.1002
 1512, 0.00544525, 70.02, 69.9031
 1536, 0.00544117, 70.82, 70.7065
 1560, 0.00543739, 71.62, 71.51
 1584, 0.00543392, 72.42, 72.3138
 1608, 0.00543078, 73.22, 73.1176
 1632, 0.00542798, 74.02, 73.9215
 1656, 0.00542554, 74.82, 74.7254
 1680, 0.00542344, 75.62, 75.5291
 1704, 0.00542167, 76.42, 76.3325
 1728, 0.00542022, 77.22, 77.1357
 1752, 0.00541904, 78.02, 77.9386
 1776, 0.00541812, 78.82, 78.7411
 1800, 0.00541741, 79.62, 79.5432
 1824, 0.00541688, 80.42, 80.3449
 1848, 0.0054165, 81.22, 81.1463
 1872, 0.00541623, 82.02, 81.9475
 1896, 0.00541605, 82.82, 82.7483
 1920, 0.00541594, 83.62, 83.549
 1944, 0.00541586, 84.42, 84.3495
 1968, 0.00541582, 85.22, 85.1499
 1992, 0.0054158, 86.02, 85.9501
 2016, 0.00541578, 86.82, 86.7504
 2040, 0.00541578, 87.62, 87.5506
 2064, 0.00541577, 88.42, 88.3508
 2088, 0.00541577, 89.22, 89.1509
 2112, 0.00541577, 90.02, 89.9511
 2136, 0.00541577, 90.82, 90.7512
 2160, 0.00541577, 91.62, 91.5514
 2184, 0.00541577, 92.42, 92.3515
 2208, 0.00541577, 93.22, 93.1516
 2232, 0.00541577, 94.02, 93.9518
 2256, 0.00541577, 94.82, 94.7519
 2280, 0.00541577, 95.62, 95.5521
 2304, 0.00541577, 96.42, 96.3522
 2328, 0.00541577, 97.22, 97.1523
 2352, 0.00541577, 98.02, 97.9525
 2376, 0.00541577, 98.82, 98.7526
 2400, 0.00541577, 99.62, 99.5527
 2424, 0.00541577, 100.42, 100.353
 2448, 0.00541577, 101.22, 101.153
 2472, 0.00541577, 102.02, 101.953
 2496, 0.00541577, 102.82, 102.753
 2520, 0.00541577, 103.62, 103.553
 2544, 0.00541577, 104.42, 104.354
 2568, 0.00541577, 105.22, 105.154
 2592, 0.00541577, 106.02, 105.954
 2616, 0.00541577, 106.82, 106.754
 2640, 0.00541577, 107.62, 107.554
 2664, 0.00541577, 108.42, 108.354
 2688, 0.00541577, 109.22, 109.154
 2712, 0.00541577, 110.02, 109.954
 2736, 0.00541577, 110.82, 110.754
 2760, 0.00541577, 111.62, 111.555
 2784, 0.00541577, 112.42, 112.355
 2808, 0.00541577, 113.22, 113.155
 2832, 0.00541577, 114.02, 113.955
 2856, 0.00541577, 114.82, 114.755
 2880, 0.00541577, 115.62, 115.555
 2904, 0.00541577, 116.42, 116.355
 2928, 0.00541577, 117.22, 117.155
 2952, 0.00541577, 118.02, 117.956
 2976, 0.00541577, 118.82, 118.756
 3000, 0.00541577, 119.62, 119.556
 3024, 0.00541577, 120.42, 120.356
 3048, 0.00541577, 121.22, 121.156
 3072, 0.00541577, 122.02, 121.956
 3096, 0.00541577, 122.82, 122.756
 3120, 0.00541577, 123.62, 123.556
 3144, 0.00541577, 124.42, 124.356
 3168, 0.00541577, 125.22, 125.156
 3192, 0.00541577, 126.02, 125.957
 3216, 0.00541577, 126.82, 126.757
 3240, 0.00541577, 127.62, 127.557
 3264, 0.00541577, 128.42, 128.357
 3288, 0.00541577, 129.22, 129.157
 3312, 0.00541577, 130.02, 129.957
 3336, 0.00541577, 130.82, 130.757
 3360, 0.00541577, 131.62, 131.557
 3384, 0.00541577, 132.42, 132.357
 3408, 0.00541577, 133.22, 133.157
 3432, 0.00541577, 134.02, 133.958
 3456, 0.00541577, 134.82, 134.758
 3480, 0.00541577, 135.62, 135.558
 3504, 0.00541577, 136.42, 136.358
 3528, 0.00541577, 137.22, 137.158
 3552, 0.00541577, 138.02, 137.958
 3576, 0.00541577, 138.82, 138.758
 3600, 0.00541577, 139.62, 139.558
 3624, 0.00541577, 140.42, 140.358
 3648, 0.00541577, 141.22, 141.158
 3672, 0.00541577, 142.02, 141.958
 3696, 0.00541577, 142.82, 142.759
 3720, 0.00541577, 143.62, 143.559
 3744, 0.00541577, 144.42, 144.359
 3768, 0.00541577, 145.22, 145.159
 3792, 0.00541577, 146.02, 145.959
 3816, 0.00541577, 146.82, 146.759
 3840, 0.00541577, 147.62, 147.559
 3864, 0.00541577, 148.42, 148.359
 3888, 0.00541577, 149.22, 149.159
 3912, 0.00541577, 150.02, 149.959
 3936, 0.00541577, 150.82, 150.759
 3960, 0.00541577, 151.62, 151.559
 3984, 0.00541577, 152.42, 152.359
 4008, 0.00541577, 153.22, 153.16
 4032, 0.00541577, 154.02, 153.96
 4056, 0.00541577, 154.82, 154.76
 4080, 0.00541577, 155.62, 155.56
 4104, 0.00541577, 156.42, 156.36
 4128, 0.00541577, 157.22, 157.16
 4152, 0.00541577, 158.02, 157.96
 4176, 0.00541577, 158.82, 158.76
 4200, 0.00541577, 159.62, 159.56
 4224, 0.00541577, 160.42, 160.36
 4248, 0.00541577, 161.22, 161.16
 4272, 0.00541577, 162.02, 161.96
 4296, 0.00541577, 162.82, 162.76
 4320, 0.00541577, 163.62, 163.561
 4344, 0.00541577, 164.42, 164.361
 4368, 0.00541577, 165.22, 165.161
 4392, 0.00541577, 166.02, 165.961
 4416, 0.00541576, 166.82, 166.761
 4440, 0.00541576, 167.62, 167.561
 4464, 0.00541576, 168.42, 168.361
 4488, 0.00541576, 169.22, 169.161
 4512, 0.00541576, 170.02, 169.961
 4536, 0.00541576, 170.82, 170.761
 4560, 0.00541576, 171.62, 171.561
 4584, 0.00541576, 172.42, 172.361
 4608, 0.00541576, 173.22, 173.161
 4632, 0.00541576, 174.02, 173.961
 4656, 0.00541576, 174.82, 174.761
 4680, 0.00541576, 175.62, 175.562
 4704, 0.00541575, 176.42, 176.362
 4728, 0.00541575, 177.22, 177.162
 4752, 0.00541575, 178.02, 177.962
 4776, 0.00541575, 178.82, 178.762
 4800, 0.00541575, 179.62, 179.562
 4824, 0.00541575, 180.42, 180.362
 4848, 0.00541574, 181.22, 181.162
 4872, 0.00541574, 182.02, 181.962
 4896, 0.00541574, 182.82, 182.762
 4920, 0.00541574, 183.62, 183.562
 4944, 0.00541573, 184.42, 184.362
 4968, 0.00541573, 185.22, 185.162
 4992, 0.00541573, 186.02, 185.962
 5016, 0.00541572, 186.82, 186.762
 5040, 0.00541572, 187.62, 187.562
 5064, 0.00541571, 188.42, 188.362
 5088, 0.00541571, 189.22, 189.163
 5112, 0.0054157, 190.02, 189.963
 5136, 0.0054157, 190.82, 190.763
 5160, 0.00541569, 191.62, 191.563
 5184, 0.00541569, 192.42, 192.363
 5208, 0.00541568, 193.22, 193.163
 5232, 0.00541567, 194.02, 193.963
 5256, 0.00541566, 194.82, 194.763
 5280, 0.00541565, 195.62, 195.563
 5304, 0.00541564, 196.42, 196.363
 5328, 0.00541563, 197.22, 197.163
 5352, 0.00541562, 198.02, 197.963
 5376, 0.00541561, 198.82, 198.763
 5400, 0.0054156, 199.62, 199.563
 5424, 0.00541558, 200.42, 200.363
 5448, 0.00541557, 201.22, 201.163
 5472, 0.00541555, 202.02, 201.963
 5496, 0.00541553, 202.82, 202.763
 5520, 0.00541551, 203.62, 203.563
 5544, 0.00541549, 204.42, 204.364
 5568, 0.00541547, 205.22, 205.164
 5592, 0.00541545, 206.02, 205.964
 5616, 0.00541542, 206.82, 206.764
 5640, 0.0054154, 207.62, 207.564
 5664, 0.00541537, 208.42, 208.364
 5688, 0.00541533, 209.22, 209.164
 5712, 0.0054153, 210.02, 209.964
 5736, 0.00541526, 210.82, 210.764
 5760, 0.00541522, 211.62, 211.564
 5784, 0.00541518, 212.42, 212.364
 5808, 0.00541513, 213.22, 213.164
 5832, 0.00541509, 214.02, 213.964
 5856, 0.00541503, 214.82, 214.764
 5880, 0.00541498, 215.62, 215.564
 5904, 0.00541492, 216.42, 216.364
 5928, 0.00541485, 217.22, 217.164
 5952, 0.00541478, 218.02, 217.964
 5976, 0.00541471, 218.82, 218.764
 6000, 0.00541463, 219.62, 219.564
 6024, 0.00541454, 220.42, 220.364
 6048, 0.00541445, 221.22, 221.164
 6072, 0.00541435, 222.02, 221.965
 6096, 0.00541424, 222.82, 222.765
 6120, 0.00541413, 223.62, 223.565
 6144, 0.00541401, 224.42, 224.365
 6168, 0.00541388, 225.22, 225.165
 6192, 0.00541374, 226.02, 225.965
 6216, 0.00541359, 226.82, 226.765
 6240, 0.00541344, 227.62, 227.565
 6264, 0.00541327, 228.42, 228.365
 6288, 0.00541308, 229.22, 229.165
 6312, 0.00541289, 230.02, 229.965
 6336, 0.00541268, 230.82, 230.765
 6360, 0.00541246, 231.62, 231.565
 6384, 0.00541222, 232.42, 232.365
 6408, 0.00541197, 233.22, 233.165
 6432, 0.0054117, 234.02, 233.965
 6456, 0.00541141, 234.82, 234.765
 6480, 0.00541111, 235.62, 235.565
 6504, 0.00541078, 236.42, 236.365
 6528, 0.00541043, 237.22, 237.165
 6552, 0.00541006, 238.02, 237.965
 6576, 0.00540966, 238.82, 238.765
 6600, 0.00540923, 239.62, 239.565
 6624, 0.00540878, 240.42, 240.365
 6648, 0.0054083, 241.22, 241.165
 6672, 0.00540778, 242.02, 241.965
 6696, 0.00540723, 242.82, 242.765
 6720, 0.00540665, 243.62, 243.565
 6744, 0.00540603, 244.42, 244.365
 6768, 0.00540537, 245.22, 245.165
 6792, 0.00540466, 246.02, 245.965
 6816, 0.00540391, 246.82, 246.766
 6840, 0.00540312, 247.62, 247.566
 6864, 0.00540227, 248.42, 248.366
 6888, 0.00540136, 249.22, 249.166
 6912, 0.0054004, 250.02, 249.966
 6936, 0.00539938, 250.82, 250.766
 6960, 0.0053983, 251.62, 251.566
 6984, 0.00539715, 252.42, 252.366
 7008, 0.00539592, 253.22, 253.166
 7032, 0.00539462, 254.02, 253.966
 7056, 0.00539324, 254.82, 254.766
 7080, 0.00539177, 255.62, 255.566
 7104, 0.00539021, 256.42, 256.366
 7128, 0.00538855, 257.22, 257.166
 7152, 0.0053868, 258.02, 257.966
 7176, 0.00538493, 258.82, 258.766
 7200, 0.00538296, 259.62, 259.566
 7224, 0.00538086, 260.42, 260.366
 7248, 0.00537863, 261.22, 261.166
 7272, 0.00537628, 262.02, 261.966
 7296, 0.00537378, 262.82, 262.766
 7320, 0.00537113, 263.62, 263.566
 7344, 0.00536832, 264.42, 264.366
 7368, 0.00536535, 265.22, 265.166
 7392, 0.0053622, 266.02, 265.966
 7416, 0.00535887, 266.82, 266.766
 7440, 0.00535534, 267.62, 267.566
 7464, 0.00535161, 268.42, 268.366
 7488, 0.00534765, 269.22, 269.166
 7512, 0.00534347, 270.02, 269.965
 7536, 0.00533905, 270.82, 270.765
 7560, 0.00533437, 271.62, 271.565
 7584, 0.00532943, 272.42, 272.365
 7608, 0.0053242, 273.22, 273.165
 7632, 0.00531868, 274.02, 273.965
 7656, 0.00531284, 274.82, 274.765
 7680, 0.00530668, 275.62, 275.565
 7704, 0.00530017, 276.42, 276.365
 7728, 0.0052933, 277.22, 277.165
 7752, 0.00528605, 278.02, 277.965
 7776, 0.00527839, 278.82, 278.765
 7800, 0.00527032, 279.62, 279.565
 7824, 0.00526181, 280.42, 280.365
 7848, 0.00525283, 281.22, 281.165
 7872, 0.00524337, 282.02, 281.965
 7896, 0.0052334, 282.82, 282.764
 7920, 0.00522289, 283.62, 283.564
 7944, 0.00521183, 284.42, 284.364
 7968, 0.00520018, 285.22, 285.164
 7992, 0.00518792, 286.02, 285.964
 8016, 0.00517502, 286.82, 286.764
 8040, 0.00516145, 287.62, 287.564
 8064, 0.00514718, 288.42, 288.364
 8088, 0.00513218, 289.22, 289.163
 8112, 0.00511642, 290.02, 289.963
 8136, 0.00509986, 290.82, 290.763
 8160, 0.00508247, 291.62, 291.563
 8184, 0.00506422, 292.42, 292.363
 8208, 0.00504507, 293.22, 293.163
 8232, 0.00502498, 294.02, 293.962
 8256, 0.00500392, 294.82, 294.762
 8280, 0.00498185, 295.62, 295.562
 8304, 0.00495872, 296.42, 296.362
 8328, 0.00493451, 297.22, 297.162
 8352, 0.00490917, 298.02, 297.961
 8376, 0.00488266, 298.82, 298.761
 8400, 0.00485494, 299.62, 299.561
 8424, 0.00482597, 300.42, 300.361
 8448, 0.00479571, 301.22, 301.16
 8472, 0.00476412, 302.02, 301.96
 8496, 0.00473116, 302.82, 302.76
 8520, 0.00469679, 303.62, 303.56
 8544, 0.00466097, 304.42, 304.359
 8568, 0.00462366, 305.22, 305.159
 8592, 0.00458483, 306.02, 305.959
 8616, 0.00454443, 306.82, 306.759
 8640, 0.00450245, 307.62, 307.558
 8664, 0.00445884, 308.42, 308.358
 8688, 0.00441358, 309.22, 309.158
 8712, 0.00436664, 310.02, 309.957
 8736, 0.004318, 310.82, 310.757
 8760, 0.00426764, 311.62, 311.557
 8784, 0.00421554, 312.42, 312.356
 8808, 0.0041617, 313.22, 313.156
 8832, 0.0041061, 314.02, 313.956
 8856, 0.00404874, 314.82, 314.756
 8880, 0.00398964, 315.62, 315.555
 8904, 0.0039288, 316.42, 316.355
 8928, 0.00386624, 317.22, 317.155
 8952, 0.00380199, 318.02, 317.955
 8976, 0.00373607, 318.82, 318.754
 9000, 0.00366853, 319.62, 319.554
 9024, 0.00359943, 320.42, 320.354
 9048, 0.00352881, 321.22, 321.154
 9072, 0.00345675, 322.02, 321.953
 9096, 0.00338332, 322.82, 322.753
 9120, 0.00330862, 323.62, 323.553
 9144, 0.00323274, 324.42, 324.353
 9168, 0.00315578, 325.22, 325.153
 9192, 0.00307788, 326.02, 325.953
 9216, 0.00299916, 326.82, 326.753
 9240, 0.00291976, 327.62, 327.553
 9264, 0.00283983, 328.42, 328.353
 9288, 0.00275953, 329.22, 329.153
 9312, 0.00267903, 330.02, 329.953
 9336, 0.0025985, 330.82, 330.753
 9360, 0.00251813, 331.62, 331.554
 9384, 0.00243812, 332.42, 332.354
 9408, 0.00235866, 333.22, 333.154
 9432, 0.00227995, 334.02, 333.955
 9456, 0.00220219, 334.82, 334.755
 9480, 0.0021256, 335.62, 335.555
 9504, 0.00205037, 336.42, 336.356
 9528, 0.0019767, 337.22, 337.156
 9552, 0.0019048, 338.02, 337.957
 9576, 0.00183486, 338.82, 338.757
 9600, 0.00176705, 339.62, 339.558
 9624, 0.00170155, 340.42, 340.359
 9648, 0.00163853, 341.22, 341.159
 9672, 0.00157811, 342.02, 341.96
 9696, 0.00152044, 342.82, 342.761
 9720, 0.00146562, 343.62, 343.561
 9744, 0.00141374, 344.42, 344.362
 9768, 0.00136486, 345.22, 345.163
 9792, 0.00131905, 346.02, 345.963
 9816, 0.00127631, 346.82, 346.764
 9840, 0.00123666, 347.62, 347.565
 9864, 0.00120006, 348.42, 348.365
 9888, 0.00116647, 349.22, 349.166
 9912, 0.00113583, 350.02, 349.967
 9936, 0.00110805, 350.82, 350.767
 9960, 0.00108302, 351.62, 351.568
 9984, 0.00106062, 352.42, 352.368
 10008, 0.00104071, 353.22, 353.169
 10032, 0.00102314, 354.02, 353.969
 10056, 0.00100775, 354.82, 354.77
 10080, 0.000994375, 355.62, 355.57
 10104, 0.000982847, 356.42, 356.371
 10128, 0.000972993, 357.22, 357.171
 10152, 0.000964645, 358.02, 357.971
 10176, 0.000957635, 358.82, 358.772
 10200, 0.000951806, 359.62, 359.572
 10224, 0.000947006, 360.42, 360.372
 10248, 0.000943094, 361.22, 361.172
 10272, 0.000939939, 362.02, 361.972
 10296, 0.000937423, 362.82, 362.772
 10320, 0.000935441, 363.62, 363.572
 10344, 0.000933896, 364.42, 364.373
 10368, 0.000932708, 365.22, 365.173
 10392, 0.000931806, 366.02, 365.973
 10416, 0.000931131, 366.82, 366.773
 10440, 0.000930632, 367.62, 367.573
 10464, 0.000930269, 368.42, 368.373
 10488, 0.000930008, 369.22, 369.173
 10512, 0.000929825, 370.02, 369.973
 10536, 0.000929697, 370.82, 370.773
 10560, 0.00092961, 371.62, 371.573
 10584, 0.000929552, 372.42, 372.373
 10608, 0.000929513, 373.22, 373.173
 10632, 0.000929488, 374.02, 373.973
 10656, 0.000929473, 374.82, 374.773
 10680, 0.000929463, 375.62, 375.573
 10704, 0.000929457, 376.42, 376.373
 10728, 0.000929454, 377.22, 377.173
 10752, 0.000929452, 378.02, 377.973
 10776, 0.00092945, 378.82, 378.773
 10800, 0.00092945, 379.62, 379.573
 10824, 0.000929449, 380.42, 380.373
 10848, 0.000929449, 381.22, 381.173
 10872, 0.000929449, 382.02, 381.973
 10896, 0.000929449, 382.82, 382.773
 10920, 0.000929449, 383.62, 383.573
 10944, 0.000929449, 384.42, 384.373
 10968, 0.000929449, 385.22, 385.173
 10992, 0.000929449, 386.02, 385.973
 11016, 0.000929449, 386.82, 386.773
 11040, 0.000929449, 387.62, 387.573
 11064, 0.000929449, 388.42, 388.373
 11088, 0.000929449, 389.22, 389.173
 11112, 0.000929449, 390.02, 389.973
 11136, 0.000929449, 390.82, 390.773
 11160, 0.000929449, 391.62, 391.573
 11184, 0.000929449, 392.42, 392.373
 11208, 0.000929449, 393.22, 393.173
 11232, 0.000929449, 394.02, 393.973
 11256, 0.000929449, 394.82, 394.773
 11280, 0.000929449, 395.62, 395.573
 11304, 0.000929449, 396.42, 396.373
 11328, 0.000929449, 397.22, 397.173
 11352, 0.000929449, 398.02, 397.973
 11376, 0.000929449, 398.82, 398.773
 11400, 0.000929449, 399.62, 399.573
 11424, 0.000929449, 400.42, 400.373
 11448, 0.000929449, 401.22, 401.173
 11472, 0.000929449, 402.02, 401.973
 11496, 0.000929449, 402.82, 402.773
 11520, 0.000929449, 403.62, 403.573
 11544, 0.000929449, 404.42, 404.373
 11568, 0.000929449, 405.22, 405.173
 11592, 0.000929449, 406.02, 405.973
 11616, 0.000929449, 406.82, 406.773
 11640, 0.000929449, 407.62, 407.573
 11664, 0.000929449, 408.42, 408.373
 11688, 0.000929449, 409.22, 409.173
 11712, 0.000929449, 410.02, 409.973
 11736, 0.000929449, 410.82, 410.773
 11760, 0.000929449, 411.62, 411.573
 11784, 0.000929449, 412.42, 412.373
 11808, 0.000929449, 413.22, 413.173
 11832, 0.000929449, 414.02, 413.973
 11856, 0.000929449, 414.82, 414.773
 11880, 0.000929449, 415.62, 415.573
 11904, 0.000929449, 416.42, 416.373
 11928, 0.000929449, 417.22, 417.173
 11952, 0.000929449, 418.02, 417.973
 11976, 0.000929449, 418.82, 418.773
 12000, 0.000929449, 419.62, 419.573
 12024, 0.000929449, 420.42, 420.373
 12048, 0.000929449, 421.22, 421.173
 12072, 0.000929449, 422.02, 421.973
 12096, 0.000929449, 422.82, 422.773
 12120, 0.000929449, 423.62, 423.573
 12144, 0.000929449, 424.42, 424.373
 12168, 0.000929449, 425.22, 425.173
 12192, 0.000929449, 426.02, 425.973
 12216, 0.000929449, 426.82, 426.773
 12240, 0.000929449, 427.62, 427.573
 12264, 0.000929449, 428.42, 428.373
 12288, 0.000929449, 429.22, 429.173
 12312, 0.000929449, 430.02, 429.973
 12336, 0.000929449, 430.82, 430.773
 12360, 0.000929449, 431.62, 431.573
 12384, 0.000929449, 432.42, 432.373
 12408, 0.000929449, 433.22, 433.173
 12432, 0.000929449, 434.02, 433.973
 12456, 0.000929449, 434.82, 434.773
 12480, 0.000929449, 435.62, 435.573
 12504, 0.000929449, 436.42, 436.373
 12528, 0.000929449, 437.22, 437.173
 12552, 0.000929449, 438.02, 437.973
 12576, 0.000929449, 438.82, 438.773
 12600, 0.000929449, 439.62, 439.573
 12624, 0.000929449, 440.42, 440.373
 12648, 0.000929449, 441.22, 441.173
 12672, 0.000929449, 442.02, 441.973
 12696, 0.000929449, 442.82, 442.773
 12720, 0.000929449, 443.62, 443.573
 12744, 0.000929449, 444.42, 444.373
 12768, 0.000929449, 445.22, 445.173
 12792, 0.000929449, 446.02, 445.973
 12816, 0.000929449, 446.82, 446.773
 12840, 0.000929449, 447.62, 447.573
 12864, 0.000929449, 448.42, 448.373
 12888, 0.000929449, 449.22, 449.173
 12912, 0.000929449, 450.02, 449.973
 12936, 0.000929449, 450.82, 450.773
 12960, 0.000929449, 451.62, 451.573
 12984, 0.000929449, 452.42, 452.373
 13008, 0.000929449, 453.22, 453.173
 13032, 0.000929449, 454.02, 453.973
 13056, 0.000929449, 454.82, 454.773
 13080, 0.000929449, 455.62, 455.573
 13104, 0.000929449, 456.42, 456.373
 13128, 0.000929449, 457.22, 457.173
 13152, 0.000929449, 458.02, 457.973
 13176, 0.000929449, 458.82, 458.773
 13200, 0.000929449, 459.62, 459.573
 13224, 0.000929449, 460.42, 460.373
 13248, 0.000929449, 461.22, 461.173
 13272, 0.000929449, 462.02, 461.973
 13296, 0.000929449, 462.82, 462.773
 13320, 0.000929449, 463.62, 463.573
 13344, 0.000929449, 464.42, 464.373
 13368, 0.000929449, 465.22, 465.173
 13392, 0.000929449, 466.02, 465.973
 13416, 0.000929449, 466.82, 466.773
 13440, 0.000929449, 467.62, 467.573
 13464, 0.000929449, 468.42, 468.373
 13488, 0.000929449, 469.22, 469.173
 13512, 0.000929449, 470.02, 469.973
 13536, 0.000929449, 470.82, 470.773
 13560, 0.000929449, 471.62, 471.573
 13584, 0.000929449, 472.42, 472.373
 13608, 0.000929449, 473.22, 473.173
 13632, 0.000929449, 474.02, 473.973
 13656, 0.000929449, 474.82, 474.773
 13680, 0.000929449, 475.62, 475.573
 13704, 0.000929449, 476.42, 476.373
 13728, 0.000929449, 477.22, 477.173
 13752, 0.000929449, 478.02, 477.973
 13776, 0.000929449, 478.82, 478.773
 13800, 0.000929449, 479.62, 479.573
 13824, 0.000929449, 480.42, 480.373
 13848, 0.000929449, 481.22, 481.173
 13872, 0.000929449, 482.02, 481.973
 13896, 0.000929449, 482.82, 482.773
 13920, 0.000929449, 483.62, 483.573
 13944, 0.000929449, 484.42, 484.373
 13968, 0.000929449, 485.22, 485.173
 13992, 0.000929449, 486.02, 485.973
 14016, 0.000929449, 486.82, 486.773
 14040, 0.000929449, 487.62, 487.573
 14064, 0.000929449, 488.42, 488.373
 14088, 0.000929449, 489.22, 489.173
 14112, 0.000929449, 490.02, 489.973
 14136, 0.000929449, 490.82, 490.773
 14160, 0.000929449, 491.62, 491.573
 14184, 0.000929449, 492.42, 492.373
 14208, 0.000929449, 493.22, 493.173
 14232, 0.000929449, 494.02, 493.973
 14256, 0.000929449, 494.82, 494.773
 14280, 0.000929449, 495.62, 495.573
 14304, 0.000929449, 496.42, 496.373
 14328, 0.000929449, 497.22, 497.173
 14352, 0.000929449, 498.02, 497.973
 14376, 0.000929449, 498.82, 498.773
 14400, 0.000929449, 499.62, 499.573
 14424, 0.000929449, 500.42, 500.373
 14448, 0.000929449, 501.22, 501.173
 14472, 0.000929449, 502.02, 501.973
 14496, 0.000929449, 502.82, 502.773
 14520, 0.000929449, 503.62, 503.573
 14544, 0.000929449, 504.42, 504.373
 14568, 0.000929449, 505.22, 505.173
 14592, 0.000929449, 506.02, 505.973
 14616, 0.000929449, 506.82, 506.773
 14640, 0.000929449, 507.62, 507.573
 14664, 0.000929449, 508.42, 508.373
 14688, 0.000929449, 509.22, 509.173
 14712, 0.000929449, 510.02, 509.973
 14736, 0.000929449, 510.82, 510.773
 14760, 0.000929449, 511.62, 511.573
 14784, 0.000929449, 512.42, 512.373
 14808, 0.000929449, 513.22, 513.173
 14832, 0.000929449, 514.02, 513.973
 14856, 0.000929449, 514.82, 514.773
 14880, 0.000929449, 515.62, 515.573
 14904, 0.000929449, 516.42, 516.373
 14928, 0.000929449, 517.22, 517.173
 14952, 0.000929449, 518.02, 517.973
 14976, 0.000929449, 518.82, 518.773
 15000, 0.000929449, 519.62, 519.573
 15024, 0.000929449, 520.42, 520.373
 15048, 0.000929449, 521.22, 521.173
 15072, 0.000929449, 522.02, 521.973
 15096, 0.000929449, 522.82, 522.773
 15120, 0.000929449, 523.62, 523.573
 15144, 0.000929449, 524.42, 524.373
 15168, 0.000929449, 525.22, 525.173
 15192, 0.000929449, 526.02, 525.973
 15216, 0.000929449, 526.82, 526.773
 15240, 0.000929449, 527.62, 527.573
 15264, 0.000929449, 528.42, 528.373
 15288, 0.000929449, 529.22, 529.173
 15312, 0.000929449, 530.02, 529.973
 15336, 0.000929449, 530.82, 530.773
 15360, 0.000929449, 531.62, 531.573
 15384, 0.000929449, 532.42, 532.373
 15408, 0.000929449, 533.22, 533.173
 15432, 0.000929449, 534.02, 533.973
 15456, 0.000929449, 534.82, 534.773
 15480, 0.000929449, 535.62, 535.573
 15504, 0.000929449, 536.42, 536.373
 15528, 0.000929449, 537.22, 537.173
 15552, 0.000929449, 538.02, 537.973
 15576, 0.000929449, 538.82, 538.773
 15600, 0.000929449, 539.62, 539.573
 15624, 0.000929449, 540.42, 540.373
 15648, 0.000929449, 541.22, 541.173
 15672, 0.000929449, 542.02, 541.973
 15696, 0.000929449, 542.82, 542.773
 15720, 0.000929449, 543.62, 543.573
 15744, 0.000929449, 544.42, 544.373
 15768, 0.000929449, 545.22, 545.173
 15792, 0.000929449, 546.02, 545.973
 15816, 0.000929449, 546.82, 546.773
 15840, 0.000929449, 547.62, 547.573
 15864, 0.000929449, 548.42, 548.373
 15888, 0.000929449, 549.22, 549.173
 15912, 0.000929449, 550.02, 549.973
 15936, 0.000929449, 550.82, 550.773
 15960, 0.000929449, 551.62, 551.573
 15984, 0.000929449, 552.42, 552.373
 16008, 0.000929449, 553.22, 553.173
 16032, 0.000929449, 554.02, 553.973
 16056, 0.000929449, 554.82, 554.773
 16080, 0.000929449, 555.62, 555.573
 16104, 0.000929449, 556.42, 556.373
 16128, 0.000929449, 557.22, 557.173
 16152, 0.000929449, 558.02, 557.973
 16176, 0.000929449, 558.82, 558.773
 16200, 0.000929449, 559.62, 559.573
 16224, 0.000929449, 560.42, 560.373
 16248, 0.000929449, 561.22, 561.173
 16272, 0.000929449, 562.02, 561.973
 16296, 0.000929449, 562.82, 562.773
 16320, 0.000929449, 563.62, 563.573
 16344, 0.000929449, 564.42, 564.373
 16368, 0.000929449, 565.22, 565.173
 16392, 0.000929449, 566.02, 565.973
 16416, 0.000929449, 566.82, 566.773
 16440, 0.000929449, 567.62, 567.573
 16464, 0.000929449, 568.42, 568.373
 16488, 0.000929449, 569.22, 569.173
 16512, 0.000929449, 570.02, 569.973
 16536, 0.000929449, 570.82, 570.773
 16560, 0.000929449, 571.62, 571.573
 16584, 0.000929449, 572.42, 572.373
 16608, 0.000929449, 573.22, 573.173
 16632, 0.000929449, 574.02, 573.973
 16656, 0.000929449, 574.82, 574.773
 16680, 0.000929449, 575.62, 575.573
 16704, 0.000929449, 576.42, 576.373
 16728, 0.000929449, 577.22, 577.173
 16752, 0.000929449, 578.02, 577.973
 16776, 0.000929449, 578.82, 578.773
 16800, 0.000929449, 579.62, 579.573
 16824, 0.000929449, 580.42, 580.373
 16848, 0.000929449, 581.22, 581.173
 16872, 0.000929449, 582.02, 581.973
 16896, 0.000929449, 582.82, 582.773
 16920, 0.000929449, 583.62, 583.573
 16944, 0.000929449, 584.42, 584.373
 16968, 0.000929449, 585.22, 585.173
 16992, 0.000929449, 586.02, 585.973
 17016, 0.000929449, 586.82, 586.773
 17040, 0.000929449, 587.62, 587.573
 17064, 0.000929449, 588.42, 588.373
 17088, 0.000929449, 589.22, 589.173
 17112, 0.000929449, 590.02, 589.973
 17136, 0.000929449, 590.82, 590.773
 17160, 0.000929449, 591.62, 591.573
 17184, 0.000929449, 592.42, 592.373
 17208, 0.000929449, 593.22, 593.173
 17232, 0.000929449, 594.02, 593.973
 17256, 0.000929449, 594.82, 594.773
 17280, 0.000929449, 595.62, 595.573
 17304, 0.000929449, 596.42, 596.373
 17328, 0.000929449, 597.22, 597.173
 17352, 0.000929449, 598.02, 597.973
 17376, 0.000929449, 598.82, 598.773
 17400, 0.000929449, 599.62, 599.573
 17424, 0.000929449, 600.42, 600.373
 17448, 0.000929449, 601.22, 601.173
 17472, 0.000929449, 602.02, 601.973
 17496, 0.000929449, 602.82, 602.773
 17520, 0.000929449, 603.62, 603.573
 17544, 0.000929449, 604.42, 604.373
 17568, 0.000929449, 605.22, 605.173
 17592, 0.000929449, 606.02, 605.973
 17616, 0.000929449, 606.82, 606.773
 17640, 0.000929449, 607.62, 607.573
 17664, 0.000929449, 608.42, 608.373
 17688, 0.000929449, 609.22, 609.173
 17712, 0.000929449, 610.02, 609.973
 17736, 0.000929449, 610.82, 610.773
 17760, 0.000929449, 611.62, 611.573
 17784, 0.000929449, 612.42, 612.373
 17808, 0.000929449, 613.22, 613.173
 17832, 0.000929449, 614.02, 613.973
 17856, 0.000929449, 614.82, 614.773
 17880, 0.000929449, 615.62, 615.573
 17904, 0.000929449, 616.42, 616.373
 17928, 0.000929449, 617.22, 617.173
 17952, 0.000929449, 618.02, 617.973
 17976, 0.000929449, 618.82, 618.773
 18000, 0.000929449, 619.62, 619.573
 18024, 0.000929449, 620.42, 620.373
 18048, 0.000929449, 621.22, 621.173
 18072, 0.000929449, 622.02, 621.973
 18096, 0.000929449, 622.82, 622.773
 18120, 0.000929449, 623.62, 623.573
 18144, 0.000929449, 624.42, 624.373
 18168, 0.000929449, 625.22, 625.173
 18192, 0.000929449, 626.02, 625.973
 18216, 0.000929449, 626.82, 626.773
 18240, 0.000929449, 627.62, 627.573
 18264, 0.000929449, 628.42, 628.373
 18288, 0.000929449, 629.22, 629.173
 18312, 0.000929449, 630.02, 629.973
 18336, 0.000929449, 630.82, 630.773
 18360, 0.000929449, 631.62, 631.573
 18384, 0.000929449, 632.42, 632.373
 18408, 0.000929449, 633.22, 633.173
 18432, 0.000929449, 634.02, 633.973
 18456, 0.000929449, 634.82, 634.773
 18480, 0.000929449, 635.62, 635.573
 18504, 0.000929449, 636.42, 636.373
 18528, 0.000929449, 637.22, 637.173
 18552, 0.000929449, 638.02, 637.973
 18576, 0.000929449, 638.82, 638.773
 18600, 0.000929449, 639.62, 639.573
 18624, 0.000929449, 640.42, 640.373
 18648, 0.000929449, 641.22, 641.173
 18672, 0.000929449, 642.02, 641.973
 18696, 0.000929449, 642.82, 642.773
 18720, 0.000929449, 643.62, 643.573
 18744, 0.000929449, 644.42, 644.373
 18768, 0.000929449, 645.22, 645.173
 18792, 0.000929449, 646.02, 645.973
 18816, 0.000929449, 646.82, 646.773
 18840, 0.000929449, 647.62, 647.573
 18864, 0.000929449, 648.42, 648.373
 18888, 0.000929449, 649.22, 649.173
 18912, 0.000929449, 650.02, 649.973
 18936, 0.000929449, 650.82, 650.773
 18960, 0.000929449, 651.62, 651.573
 18984, 0.000929449, 652.42, 652.373
 19008, 0.000929449, 653.22, 653.173
 19032, 0.000929449, 654.02, 653.973
 19056, 0.000929449, 654.82, 654.773
 19080, 0.000929449, 655.62, 655.573
 19104, 0.000929449, 656.42, 656.373
 19128, 0.000929449, 657.22, 657.173
 19152, 0.000929449, 658.02, 657.973
 19176, 0.000929449, 658.82, 658.773
 19200, 0.000929449, 659.62, 659.573
 19224, 0.000929449, 660.42, 660.373
 19248, 0.000929449, 661.22, 661.173
 19272, 0.000929449, 662.02, 661.973
 19296, 0.000929449, 662.82, 662.773
 19320, 0.000929449, 663.62, 663.573
 19344, 0.000929449, 664.42, 664.373
 19368, 0.000929449, 665.22, 665.173
 19392, 0.000929449, 666.02, 665.973
 19416, 0.000929449, 666.82, 666.773
 19440, 0.000929449, 667.62, 667.573
 19464, 0.000929449, 668.42, 668.373
 19488, 0.000929449, 669.22, 669.173
 19512, 0.000929449, 670.02, 669.973
 19536, 0.000929449, 670.82, 670.773
 19560, 0.000929449, 671.62, 671.573
 19584, 0.000929449, 672.42, 672.373
 19608, 0.000929449, 673.22, 673.173
 19632, 0.000929449, 674.02, 673.973
 19656, 0.000929449, 674.82, 674.773
 19680, 0.000929449, 675.62, 675.573
 19704, 0.000929449, 676.42, 676.373
 19728, 0.000929449, 677.22, 677.173
 19752, 0.000929449, 678.02, 677.973
 19776, 0.000929449, 678.82, 678.773
 19800, 0.000929449, 679.62, 679.573
 19824, 0.000929449, 680.42, 680.373
 19848, 0.000929449, 681.22, 681.173
 19872, 0.000929449, 682.02, 681.973
 19896, 0.000929449, 682.82, 682.773
 19920, 0.000929449, 683.62, 683.573
 19944, 0.000929449, 684.42, 684.373
 19968, 0.000929449, 685.22, 685.173
 19992, 0.000929449, 686.02, 685.973
 20016, 0.000929449, 686.82, 686.773
 20040, 0.000929449, 687.62, 687.573
 20064, 0.000929449, 688.42, 688.373
 20088, 0.000929449, 689.22, 689.173
 20112, 0.000929449, 690.02, 689.973
 20136, 0.000929449, 690.82, 690.773
 20160, 0.000929449, 691.62, 691.573
 20184, 0.000929449, 692.42, 692.373
 20208, 0.000929449, 693.22, 693.173
 20232, 0.000929449, 694.02, 693.973
 20256, 0.000929449, 694.82, 694.773
 20280, 0.000929449, 695.62, 695.573
 20304, 0.000929449, 696.42, 696.373
 20328, 0.000929449, 697.22, 697.173
 20352, 0.000929449, 698.02, 697.973
 20376, 0.000929449, 698.82, 698.773
 20400, 0.000929449, 699.62, 699.573
 20424, 0.000929449, 700.42, 700.373
 20448, 0.000929449, 701.22, 701.173
 20472, 0.000929449, 702.02, 701.973
 20496, 0.000929449, 702.82, 702.773
 20520, 0.000929449, 703.62, 703.573
 20544, 0.000929449, 704.42, 704.373
 20568, 0.000929449, 705.22, 705.173
 20592, 0.000929449, 706.02, 705.973
 20616, 0.000929449, 706.82, 706.773
 20640, 0.000929449, 707.62, 707.573
 20664, 0.000929449, 708.42, 708.373
 20688, 0.000929449, 709.22, 709.173
 20712, 0.000929449, 710.02, 709.973
 20736, 0.000929449, 710.82, 710.773
 20760, 0.000929449, 711.62, 711.573
 20784, 0.000929449, 712.42, 712.373
 20808, 0.000929449, 713.22, 713.173
 20832, 0.000929449, 714.02, 713.973
 20856, 0.000929449, 714.82, 714.773
 20880, 0.000929449, 715.62, 715.573
 20904, 0.000929449, 716.42, 716.373
 20928, 0.000929449, 717.22, 717.173
 20952, 0.000929449, 718.02, 717.973
 20976, 0.000929449, 718.82, 718.773
 21000, 0.000929449, 719.62, 719.573
 21024, 0.000929449, 720.42, 720.373
 21048, 0.000929449, 721.22, 721.173
 21072, 0.000929449, 722.02, 721.973
 21096, 0.000929449, 722.82, 722.773
 21120, 0.000929449, 723.62, 723.573
 21144, 0.000929449, 724.42, 724.373
 21168, 0.000929449, 725.22, 725.173
 21192, 0.000929449, 726.02, 725.973
 21216, 0.000929449, 726.82, 726.773
 21240, 0.000929449, 727.62, 727.573
 21264, 0.000929449, 728.42, 728.373
 21288, 0.000929449, 729.22, 729.173
 21312, 0.000929449, 730.02, 729.973
 21336, 0.000929449, 730.82, 730.773
 21360, 0.000929449, 731.62, 731.573
 21384, 0.000929449, 732.42, 732.373
 21408, 0.000929449, 733.22, 733.173
 21432, 0.000929449, 734.02, 733.973
 21456, 0.000929449, 734.82, 734.773
 21480, 0.000929449, 735.62, 735.573
 21504, 0.000929449, 736.42, 736.373
 21528, 0.000929449, 737.22, 737.173
 21552, 0.000929449, 738.02, 737.973
 21576, 0.000929449, 738.82, 738.773
 21600, 0.000929449, 739.62, 739.573
 21624, 0.000929449, 740.42, 740.373
 21648, 0.000929449, 741.22, 741.173
 21672, 0.000929449, 742.02, 741.973
 21696, 0.000929449, 742.82, 742.773
 21720, 0.000929449, 743.62, 743.573
 21744, 0.000929449, 744.42, 744.373
 21768, 0.000929449, 745.22, 745.173
 21792, 0.000929449, 746.02, 745.973
 21816, 0.000929449, 746.82, 746.773
 21840, 0.000929449, 747.62, 747.573
 21864, 0.000929449, 748.42, 748.373
 21888, 0.000929449, 749.22, 749.173
 21912, 0.000929449, 750.02, 749.973
 21936, 0.000929449, 750.82, 750.773
 21960, 0.000929449, 751.62, 751.573
 21984, 0.000929449, 752.42, 752.373
 22008, 0.000929449, 753.22, 753.173
 22032, 0.000929449, 754.02, 753.973
 22056, 0.000929449, 754.82, 754.773
 22080, 0.000929449, 755.62, 755.573
 22104, 0.000929449, 756.42, 756.373
 22128, 0.000929449, 757.22, 757.173
 22152, 0.000929449, 758.02, 757.973
 22176, 0.000929449, 758.82, 758.773
 22200, 0.000929449, 759.62, 759.573
 22224, 0.000929449, 760.42, 760.373
 22248, 0.000929449, 761.22, 761.173
 22272, 0.000929449, 762.02, 761.973
 22296, 0.000929449, 762.82, 762.773
 22320, 0.000929449, 763.62, 763.573
 22344, 0.000929449, 764.42, 764.373
 22368, 0.000929449, 765.22, 765.173
 22392, 0.000929449, 766.02, 765.973
 22416, 0.000929449, 766.82, 766.773
 22440, 0.000929449, 767.62, 767.573
 22464, 0.000929449, 768.42, 768.373
 22488, 0.000929449, 769.22, 769.173
 22512, 0.000929449, 770.02, 769.973
 22536, 0.000929449, 770.82, 770.773
 22560, 0.000929449, 771.62, 771.573
 22584, 0.000929449, 772.42, 772.373
 22608, 0.000929449, 773.22, 773.173
 22632, 0.000929449, 774.02, 773.973
 22656, 0.000929449, 774.82, 774.773
 22680, 0.000929449, 775.62, 775.573
 22704, 0.000929449, 776.42, 776.373
 22728, 0.000929449, 777.22, 777.173
 22752, 0.000929449, 778.02, 777.973
 22776, 0.000929449, 778.82, 778.773
 22800, 0.000929449, 779.62, 779.573
 22824, 0.000929449, 780.42, 780.373
 22848, 0.000929449, 781.22, 781.173
 22872, 0.000929449, 782.02, 781.973
 22896, 0.000929449, 782.82, 782.773
 22920, 0.000929449, 783.62, 783.573
 22944, 0.000929449, 784.42, 784.373
 22968, 0.000929449, 785.22, 785.173
 22992, 0.000929449, 786.02, 785.973
 23016, 0.000929449, 786.82, 786.773
 23040, 0.000929449, 787.62, 787.573
 23064, 0.000929449, 788.42, 788.373
 23088, 0.000929449, 789.22, 789.173
 23112, 0.000929449, 790.02, 789.973
 23136, 0.000929449, 790.82, 790.773
 23160, 0.000929449, 791.62, 791.573
 23184, 0.000929449, 792.42, 792.373
 23208, 0.000929449, 793.22, 793.173
 23232, 0.000929449, 794.02, 793.973
 23256, 0.000929449, 794.82, 794.773
 23280, 0.000929449, 795.62, 795.573
 23304, 0.000929449, 796.42, 796.373
 23328, 0.000929449, 797.22, 797.173
 23352, 0.000929449, 798.02, 797.973
 23376, 0.000929449, 798.82, 798.773
 23400, 0.000929449, 799.62, 799.573
 23424, 0.000929449, 800.42, 800.373
 23448, 0.000929449, 801.22, 801.173
 23472, 0.000929449, 802.02, 801.973
 23496, 0.000929449, 802.82, 802.773
 23520, 0.000929449, 803.62, 803.573
 23544, 0.000929449, 804.42, 804.373
 23568, 0.000929449, 805.22, 805.173
 23592, 0.000929449, 806.02, 805.973
 23616, 0.000929449, 806.82, 806.773
 23640, 0.000929449, 807.62, 807.573
 23664, 0.000929449, 808.42, 808.373
 23688, 0.000929449, 809.22, 809.173
 23712, 0.000929449, 810.02, 809.973
 23736, 0.000929449, 810.82, 810.773
 23760, 0.000929449, 811.62, 811.573
 23784, 0.000929449, 812.42, 812.373
 23808, 0.000929449, 813.22, 813.173
 23832, 0.000929449, 814.02, 813.973
 23856, 0.000929449, 814.82, 814.773
 23880, 0.000929449, 815.62, 815.573
 23904, 0.000929449, 816.42, 816.373
 23928, 0.000929449, 817.22, 817.173
 23952, 0.000929449, 818.02, 817.973
 23976, 0.000929449, 818.82, 818.773
 24000, 0.000929449, 819.62, 819.573