File: examples/Birch_TGA_Example/Work/Cone_ixa4_k2v/birch_tga_1step_2_tga.csv
s,C,g/g,1/s,W/g,W/g
Time,Temp,Mass,MLR,MCC,DSC
 30, 21.0001, 0.999987, 4.80453e-07, 0.0000000E+000, 0.0484218
 60, 22.0001, 0.999971, 5.51532e-07, 0.0000000E+000, 0.0485805
 90, 23.0001, 0.999953, 6.32482e-07, 0.0000000E+000, 0.0487612
 120, 24.0001, 0.999933, 7.24574e-07, 0.0000000E+000, 0.0489667
 150, 25.0001, 0.99991, 8.29223e-07, 0.0000000E+000, 0.0492002
 180, 26.0001, 0.999883, 9.4801e-07, 0.0000000E+000, 0.0494653
 210, 27.0001, 0.999853, 1.08269e-06, 0.0000000E+000, 0.0497658
 240, 28.0001, 0.999818, 1.2352e-06, 0.0000000E+000, 0.0501061
 270, 29.0001, 0.999778, 1.40771e-06, 0.0000000E+000, 0.0504909
 300, 30.0001, 0.999733, 1.60258e-06, 0.0000000E+000, 0.0509255
 330, 31.0001, 0.999682, 1.82243e-06, 0.0000000E+000, 0.0514158
 360, 32.0001, 0.999624, 2.07013e-06, 0.0000000E+000, 0.0519682
 390, 33.0001, 0.999557, 2.34882e-06, 0.0000000E+000, 0.0525895
 420, 34.0001, 0.999482, 2.66189e-06, 0.0000000E+000, 0.0532874
 450, 35.0001, 0.999397, 3.01305e-06, 0.0000000E+000, 0.0540701
 480, 36.0001, 0.999301, 3.40628e-06, 0.0000000E+000, 0.0549465
 510, 37.0001, 0.999193, 3.84585e-06, 0.0000000E+000, 0.0559259
 540, 38.0001, 0.99907, 4.3363e-06, 0.0000000E+000, 0.0570186
 570, 39.0001, 0.998932, 4.88242e-06, 0.0000000E+000, 0.058235
 600, 40.0001, 0.998776, 5.48922e-06, 0.0000000E+000, 0.0595863
 630, 41.0001, 0.998602, 6.16185e-06, 0.0000000E+000, 0.0610839
 660, 42.0001, 0.998406, 6.90557e-06, 0.0000000E+000, 0.0627394
 690, 43.0001, 0.998187, 7.72561e-06, 0.0000000E+000, 0.0645643
 720, 44.0001, 0.997942, 8.62708e-06, 0.0000000E+000, 0.0665699
 750, 45.0001, 0.997668, 9.61477e-06, 0.0000000E+000, 0.0687666
 780, 46.0001, 0.997364, 1.06929e-05, 0.0000000E+000, 0.0711637
 810, 47.0001, 0.997026, 1.18651e-05, 0.0000000E+000, 0.0737688
 840, 48.0001, 0.996651, 1.31337e-05, 0.0000000E+000, 0.076587
 870, 49.0001, 0.996237, 1.44998e-05, 0.0000000E+000, 0.0796201
 900, 50.0001, 0.99578, 1.59624e-05, 0.0000000E+000, 0.0828659
 930, 51.0001, 0.995278, 1.75185e-05, 0.0000000E+000, 0.0863168
 960, 52.0001, 0.994728, 1.9162e-05, 0.0000000E+000, 0.0899588
 990, 53.0001, 0.994127, 2.08834e-05, 0.0000000E+000, 0.09377
 1020, 54.0001, 0.993474, 2.26693e-05, 0.0000000E+000, 0.0977197
 1050, 55.0001, 0.992767, 2.45015e-05, 0.0000000E+000, 0.101767
 1080, 56.0001, 0.992004, 2.63566e-05, 0.0000000E+000, 0.105858
 1110, 57.0001, 0.991185, 2.82058e-05, 0.0000000E+000, 0.109927
 1140, 58.0001, 0.990312, 3.0014e-05, 0.0000000E+000, 0.113897
 1170, 59.0001, 0.989385, 3.17404e-05, 1.61681e-38, 0.117674
 1200, 60.0001, 0.988409, 3.33383e-05, 2.31709e-38, 0.121153
 1230, 61.0001, 0.987387, 3.47561e-05, 3.31353e-38, 0.124218
 1260, 62.0001, 0.986326, 3.59385e-05, 4.72838e-38, 0.126745
 1290, 63.0001, 0.985233, 3.68283e-05, 6.73309e-38, 0.128606
 1320, 64.0001, 0.98412, 3.73693e-05, 9.56768e-38, 0.129674
 1350, 65.0001, 0.982995, 3.75093e-05, 1.35674e-37, 0.129834
 1380, 66.0001, 0.981873, 3.72041e-05, 1.91995e-37, 0.128986
 1410, 67.0001, 0.980768, 3.6422e-05, 2.71144e-37, 0.127062
 1440, 68.0001, 0.979693, 3.5148e-05, 3.82146e-37, 0.124029
 1470, 69.0001, 0.978664, 3.3388e-05, 5.37511e-37, 0.119902
 1500, 70.0001, 0.977694, 3.11719e-05, 7.54541e-37, 0.114752
 1530, 71.0001, 0.976798, 2.85552e-05, 1.05711e-36, 0.108706
 1560, 72.0001, 0.975984, 2.56186e-05, 1.47813e-36, 0.101947
 1590, 73.0001, 0.975263, 2.24643e-05, 2.06283e-36, 0.0947086
 1620, 74.0001, 0.974637, 1.92104e-05, 2.87328e-36, 0.0872584
 1650, 75.0001, 0.97411, 1.59822e-05, 3.99454e-36, 0.07988
 1680, 76.0001, 0.973677, 1.29016e-05, 5.54289e-36, 0.0728489
 1710, 77.0001, 0.973333, 1.00765e-05, 7.67703e-36, 0.0664084
 1740, 78.0001, 0.973069, 7.59038e-06, 1.06131e-35, 0.060746
 1770, 79.0001, 0.972874, 5.49563e-06, 1.46452e-35, 0.0559788
 1800, 80.0001, 0.972735, 3.81018e-06, 2.01723e-35, 0.0521458
 1830, 81.0001, 0.972641, 2.51929e-06, 2.77351e-35, 0.0492118
 1860, 82.0001, 0.972581, 1.58158e-06, 3.8065e-35, 0.0470816
 1890, 83.0001, 0.972543, 9.38173e-07, 5.21494e-35, 0.0456206
 1920, 84.0001, 0.972522, 5.2309e-07, 7.13194e-35, 0.0446784
 1950, 85.0001, 0.97251, 2.72579e-07, 9.73657e-35, 0.04411
 1980, 86.0001, 0.972505, 1.31928e-07, 1.32694e-34, 0.0437909
 2010, 87.0001, 0.972502, 5.89092e-08, 1.80531e-34, 0.0436254
 2040, 88.0001, 0.972501, 2.40911e-08, 2.45194e-34, 0.0435464
 2070, 89.0001, 0.9725, 8.95183e-09, 3.32456e-34, 0.0435121
 2100, 90.0001, 0.9725, 2.99648e-09, 4.50019e-34, 0.0434986
 2130, 91.0001, 0.9725, 8.95175e-10, 6.08141e-34, 0.0434938
 2160, 92.0001, 0.9725, 2.36271e-10, 8.20469e-34, 0.0434924
 2190, 93.0001, 0.9725, 5.44967e-11, 1.10512e-33, 0.0434919
 2220, 94.0001, 0.9725, 1.08553e-11, 1.48611e-33, 0.0434918
 2250, 95.0001, 0.9725, 1.84359e-12, 1.99524e-33, 0.0434918
 2280, 96.0001, 0.9725, 2.63279e-13, 2.67453e-33, 0.0434918
 2310, 97.0001, 0.9725, 3.11454e-14, 3.5794e-33, 0.0434918
 2340, 98.0001, 0.9725, 3.00311e-15, 4.7829e-33, 0.0434918
 2370, 99.0001, 0.9725, 2.31931e-16, 6.3811e-33, 0.0434918
 2400, 100, 0.9725, 1.40786e-17, 8.5002e-33, 0.0434918
 2430, 101, 0.9725, 6.58164e-19, 1.13057e-32, 0.0434918
 2460, 102, 0.9725, 2.31818e-20, 1.50143e-32, 0.0434918
 2490, 103, 0.9725, 6.00778e-22, 1.99093e-32, 0.0434918
 2520, 104, 0.9725, 1.11675e-23, 2.63608e-32, 0.0434918
 2550, 105, 0.9725, 1.44856e-25, 3.48511e-32, 0.0434918
 2580, 106, 0.9725, 1.27292e-27, 4.60082e-32, 0.0434918
 2610, 107, 0.9725, 7.3403e-30, 6.06483e-32, 0.0434918
 2640, 108, 0.9725, 2.68422e-32, 7.98312e-32, 0.0434918
 2670, 109, 0.9725, 6.26035e-35, 1.04931e-31, 0.0434918
 2700, 110, 0.9725, 3.52185e-36, 1.37725e-31, 0.0434918
 2730, 111, 0.9725, 4.51286e-36, 1.80512e-31, 0.0434918
 2760, 112, 0.9725, 5.90651e-36, 2.3626e-31, 0.0434918
 2790, 113, 0.9725, 7.71987e-36, 3.08795e-31, 0.0434918
 2820, 114, 0.9725, 1.0076e-35, 4.0304e-31, 0.0434918
 2850, 115, 0.9725, 1.31332e-35, 5.25328e-31, 0.0434918
 2880, 116, 0.9725, 1.70947e-35, 6.83788e-31, 0.0434918
 2910, 117, 0.9725, 2.22211e-35, 8.88845e-31, 0.0434918
 2940, 118, 0.9725, 2.88461e-35, 1.15384e-30, 0.0434918
 2970, 119, 0.9725, 3.73965e-35, 1.49586e-30, 0.0434918
 3000, 120, 0.9725, 4.84174e-35, 1.9367e-30, 0.0434918
 3030, 121, 0.9725, 6.2604e-35, 2.50416e-30, 0.0434918
 3060, 122, 0.9725, 8.08422e-35, 3.23369e-30, 0.0434918
 3090, 123, 0.9725, 1.04259e-34, 4.17036e-30, 0.0434918
 3120, 124, 0.9725, 1.34287e-34, 5.37147e-30, 0.0434918
 3150, 125, 0.9725, 1.72743e-34, 6.90971e-30, 0.0434918
 3180, 126, 0.9725, 2.21932e-34, 8.87726e-30, 0.0434918
 3210, 127, 0.9725, 2.8477e-34, 1.13908e-29, 0.0434918
 3240, 128, 0.9725, 3.64947e-34, 1.45979e-29, 0.0434918
 3270, 129, 0.9725, 4.67121e-34, 1.86848e-29, 0.0434918
 3300, 130, 0.9725, 5.97168e-34, 2.38867e-29, 0.0434918
 3330, 131, 0.9725, 7.62495e-34, 3.04998e-29, 0.0434918
 3360, 132, 0.9725, 9.72417e-34, 3.88967e-29, 0.0434918
 3390, 133, 0.9725, 1.23865e-33, 4.9546e-29, 0.0434918
 3420, 134, 0.9725, 1.5759e-33, 6.30359e-29, 0.0434918
 3450, 135, 0.9725, 2.0026e-33, 8.01042e-29, 0.0434918
 3480, 136, 0.9725, 2.54187e-33, 1.01675e-28, 0.0434918
 3510, 137, 0.9725, 3.2226e-33, 1.28904e-28, 0.0434918
 3540, 138, 0.9725, 4.08093e-33, 1.63237e-28, 0.0434918
 3570, 139, 0.9725, 5.16195e-33, 2.06478e-28, 0.0434918
 3600, 140, 0.9725, 6.5219e-33, 2.60876e-28, 0.0434918
 3630, 141, 0.9725, 8.23084e-33, 3.29234e-28, 0.0434918
 3660, 142, 0.9725, 1.03759e-32, 4.15037e-28, 0.0434918
 3690, 143, 0.9725, 1.30655e-32, 5.22621e-28, 0.0434918
 3720, 144, 0.9725, 1.64341e-32, 6.57365e-28, 0.0434918
 3750, 145, 0.9725, 2.06486e-32, 8.25943e-28, 0.0434918
 3780, 146, 0.9725, 2.59155e-32, 1.03662e-27, 0.0434918
 3810, 147, 0.9725, 3.24908e-32, 1.29963e-27, 0.0434918
 3840, 148, 0.9725, 4.06907e-32, 1.62763e-27, 0.0434918
 3870, 149, 0.9725, 5.09057e-32, 2.03623e-27, 0.0434918
 3900, 150, 0.9725, 6.36176e-32, 2.54471e-27, 0.0434918
 3930, 151, 0.9725, 7.94205e-32, 3.17682e-27, 0.0434918
 3960, 152, 0.9725, 9.90454e-32, 3.96181e-27, 0.0434918
 3990, 153, 0.9725, 1.23392e-31, 4.93567e-27, 0.0434918
 4020, 154, 0.9725, 1.53564e-31, 6.14257e-27, 0.0434918
 4050, 155, 0.9725, 1.9092e-31, 7.6368e-27, 0.0434918
 4080, 156, 0.9725, 2.37122e-31, 9.48487e-27, 0.0434918
 4110, 157, 0.9725, 2.94208e-31, 1.17683e-26, 0.0434918
 4140, 158, 0.9725, 3.64672e-31, 1.45869e-26, 0.0434918
 4170, 159, 0.9725, 4.51563e-31, 1.80625e-26, 0.0434918
 4200, 160, 0.9725, 5.58607e-31, 2.23443e-26, 0.0434918
 4230, 161, 0.9725, 6.90349e-31, 2.76139e-26, 0.0434918
 4260, 162, 0.9725, 8.5233e-31, 3.40932e-26, 0.0434918
 4290, 163, 0.9725, 1.0513e-30, 4.20521e-26, 0.0434918
 4320, 164, 0.9725, 1.29548e-30, 5.18192e-26, 0.0434918
 4350, 165, 0.9725, 1.59485e-30, 6.3794e-26, 0.0434918
 4380, 166, 0.9725, 1.96154e-30, 7.84616e-26, 0.0434918
 4410, 167, 0.9725, 2.41028e-30, 9.6411e-26, 0.0434918
 4440, 168, 0.9725, 2.9589e-30, 1.18356e-25, 0.0434918
 4470, 169, 0.9725, 3.62904e-30, 1.45161e-25, 0.0434918
 4500, 170, 0.9725, 4.44684e-30, 1.77874e-25, 0.0434918
 4530, 171, 0.9725, 5.44396e-30, 2.17759e-25, 0.0434918
 4560, 172, 0.9725, 6.65861e-30, 2.66344e-25, 0.0434918
 4590, 173, 0.9725, 8.13692e-30, 3.25477e-25, 0.0434918
 4620, 174, 0.9725, 9.93452e-30, 3.97381e-25, 0.0434918
 4650, 175, 0.9725, 1.21184e-29, 4.84738e-25, 0.0434918
 4680, 176, 0.9725, 1.47694e-29, 5.90776e-25, 0.0434918
 4710, 177, 0.9725, 1.79844e-29, 7.19378e-25, 0.0434918
 4740, 178, 0.9725, 2.18802e-29, 8.75209e-25, 0.0434918
 4770, 179, 0.9725, 2.65968e-29, 1.06387e-24, 0.0434918
 4800, 180, 0.9725, 3.23023e-29, 1.29209e-24, 0.0434918
 4830, 181, 0.9725, 3.91982e-29, 1.56793e-24, 0.0434918
 4860, 182, 0.9725, 4.75258e-29, 1.90103e-24, 0.0434918
 4890, 183, 0.9725, 5.75739e-29, 2.30296e-24, 0.0434918
 4920, 184, 0.9725, 6.96879e-29, 2.78752e-24, 0.0434918
 4950, 185, 0.9725, 8.42805e-29, 3.37122e-24, 0.0434918
 4980, 186, 0.9725, 1.01844e-28, 4.07378e-24, 0.0434918
 5010, 187, 0.9725, 1.22967e-28, 4.9187e-24, 0.0434918
 5040, 188, 0.9725, 1.4835e-28, 5.93401e-24, 0.0434918
 5070, 189, 0.9725, 1.78827e-28, 7.15308e-24, 0.0434918
 5100, 190, 0.9725, 2.15391e-28, 8.61565e-24, 0.0434918
 5130, 191, 0.9725, 2.59224e-28, 1.03689e-23, 0.0434918
 5160, 192, 0.9725, 3.11728e-28, 1.24691e-23, 0.0434918
 5190, 193, 0.9725, 3.74569e-28, 1.49828e-23, 0.0434918
 5220, 194, 0.9725, 4.49726e-28, 1.7989e-23, 0.0434918
 5250, 195, 0.9725, 5.39541e-28, 2.15816e-23, 0.0434918
 5280, 196, 0.9725, 6.4679e-28, 2.58716e-23, 0.0434918
 5310, 197, 0.9725, 7.74761e-28, 3.09904e-23, 0.0434918
 5340, 198, 0.9725, 9.2734e-28, 3.70936e-23, 0.0434918
 5370, 199, 0.9725, 1.10912e-27, 4.43649e-23, 0.0434918
 5400, 200, 0.9725, 1.32554e-27, 5.30215e-23, 0.0434918
 5430, 201, 0.9725, 1.58299e-27, 6.33195e-23, 0.0434918
 5460, 202, 0.9725, 1.88903e-27, 7.55611e-23, 0.0434918
 5490, 203, 0.9725, 2.25256e-27, 9.01026e-23, 0.0434918
 5520, 204, 0.9725, 2.68408e-27, 1.07363e-22, 0.0434918
 5550, 205, 0.9725, 3.19592e-27, 1.27837e-22, 0.0434918
 5580, 206, 0.9725, 3.80258e-27, 1.52103e-22, 0.0434918
 5610, 207, 0.9725, 4.52114e-27, 1.80846e-22, 0.0434918
 5640, 208, 0.9725, 5.37161e-27, 2.14864e-22, 0.0434918
 5670, 209, 0.9725, 6.3775e-27, 2.551e-22, 0.0434918
 5700, 210, 0.9725, 7.56638e-27, 3.02655e-22, 0.0434918
 5730, 211, 0.9725, 8.97055e-27, 3.58822e-22, 0.0434918
 5760, 212, 0.9725, 1.06278e-26, 4.25114e-22, 0.0434918
 5790, 213, 0.9725, 1.25825e-26, 5.03302e-22, 0.0434918
 5820, 214, 0.9725, 1.48864e-26, 5.95457e-22, 0.0434918
 5850, 215, 0.9725, 1.76e-26, 7.04001e-22, 0.0434918
 5880, 216, 0.9725, 2.07941e-26, 8.31762e-22, 0.0434918
 5910, 217, 0.9725, 2.4551e-26, 9.8204e-22, 0.0434918
 5940, 218, 0.9725, 2.89671e-26, 1.15869e-21, 0.0434918
 5970, 219, 0.9725, 3.41547e-26, 1.36619e-21, 0.0434918
 6000, 220, 0.9725, 4.02443e-26, 1.60977e-21, 0.0434918
 6030, 221, 0.9725, 4.73882e-26, 1.89553e-21, 0.0434918
 6060, 222, 0.9725, 5.57635e-26, 2.23054e-21, 0.0434918
 6090, 223, 0.9725, 6.55759e-26, 2.62303e-21, 0.0434918
 6120, 224, 0.9725, 7.70646e-26, 3.08259e-21, 0.0434918
 6150, 225, 0.9725, 9.05076e-26, 3.6203e-21, 0.0434918
 6180, 226, 0.9725, 1.06227e-25, 4.24908e-21, 0.0434918
 6210, 227, 0.9725, 1.24597e-25, 4.98387e-21, 0.0434918
 6240, 228, 0.9725, 1.4605e-25, 5.842e-21, 0.0434918
 6270, 229, 0.9725, 1.71089e-25, 6.84356e-21, 0.0434918
 6300, 230, 0.9725, 2.00295e-25, 8.01179e-21, 0.0434918
 6330, 231, 0.9725, 2.3434e-25, 9.37358e-21, 0.0434918
 6360, 232, 0.9725, 2.74001e-25, 1.096e-20, 0.0434918
 6390, 233, 0.9725, 3.20176e-25, 1.2807e-20, 0.0434918
 6420, 234, 0.9725, 3.73904e-25, 1.49562e-20, 0.0434918
 6450, 235, 0.9725, 4.36381e-25, 1.74552e-20, 0.0434918
 6480, 236, 0.9725, 5.08988e-25, 2.03595e-20, 0.0434918
 6510, 237, 0.9725, 5.93318e-25, 2.37327e-20, 0.0434918
 6540, 238, 0.9725, 6.91206e-25, 2.76482e-20, 0.0434918
 6570, 239, 0.9725, 8.04763e-25, 3.21905e-20, 0.0434918
 6600, 240, 0.9725, 9.3642e-25, 3.74568e-20, 0.0434918
 6630, 241, 0.9725, 1.08897e-24, 4.3559e-20, 0.0434918
 6660, 242, 0.9725, 1.26564e-24, 5.06256e-20, 0.0434918
 6690, 243, 0.9725, 1.47011e-24, 5.88045e-20, 0.0434918
 6720, 244, 0.9725, 1.70663e-24, 6.8265e-20, 0.0434918
 6750, 245, 0.9725, 1.98005e-24, 7.9202e-20, 0.0434918
 6780, 246, 0.9725, 2.29597e-24, 9.18387e-20, 0.0434918
 6810, 247, 0.9725, 2.66077e-24, 1.06431e-19, 0.0434918
 6840, 248, 0.9725, 3.0818e-24, 1.23272e-19, 0.0434918
 6870, 249, 0.9725, 3.56744e-24, 1.42698e-19, 0.0434918
 6900, 250, 0.9725, 4.12729e-24, 1.65092e-19, 0.0434918
 6930, 251, 0.9725, 4.77236e-24, 1.90894e-19, 0.0434918
 6960, 252, 0.9725, 5.51519e-24, 2.20608e-19, 0.0434918
 6990, 253, 0.9725, 6.37014e-24, 2.54806e-19, 0.0434918
 7020, 254, 0.9725, 7.3536e-24, 2.94144e-19, 0.0434918
 7050, 255, 0.9725, 8.48428e-24, 3.39371e-19, 0.0434918
 7080, 256, 0.9725, 9.78352e-24, 3.91341e-19, 0.0434919
 7110, 257, 0.9725, 1.12757e-23, 4.51026e-19, 0.0434918
 7140, 258, 0.9725, 1.29884e-23, 5.19537e-19, 0.0434918
 7170, 259, 0.9725, 1.49534e-23, 5.98136e-19, 0.0434918
 7200, 260, 0.9725, 1.72066e-23, 6.88263e-19, 0.0434918
 7230, 261, 0.9725, 1.97888e-23, 7.91554e-19, 0.0434918
 7260, 262, 0.9725, 2.27468e-23, 9.09871e-19, 0.0434918
 7290, 263, 0.9725, 2.61332e-23, 1.04533e-18, 0.0434918
 7320, 264, 0.9725, 3.00083e-23, 1.20033e-18, 0.0434918
 7350, 265, 0.9725, 3.44404e-23, 1.37762e-18, 0.0434918
 7380, 266, 0.9725, 3.95068e-23, 1.58027e-18, 0.0434918
 7410, 267, 0.9725, 4.52955e-23, 1.81182e-18, 0.0434919
 7440, 268, 0.9725, 5.19061e-23, 2.07625e-18, 0.0434918
 7470, 269, 0.9725, 5.94517e-23, 2.37807e-18, 0.0434918
 7500, 270, 0.9725, 6.80601e-23, 2.7224e-18, 0.0434918
 7530, 271, 0.9725, 7.78763e-23, 3.11505e-18, 0.0434918
 7560, 272, 0.9725, 8.90642e-23, 3.56257e-18, 0.0434918
 7590, 273, 0.9725, 1.01809e-22, 4.07237e-18, 0.0434918
 7620, 274, 0.9725, 1.16321e-22, 4.65286e-18, 0.0434918
 7650, 275, 0.9725, 1.32837e-22, 5.3135e-18, 0.0434918
 7680, 276, 0.9725, 1.51625e-22, 6.06501e-18, 0.0434918
 7710, 277, 0.9725, 1.72987e-22, 6.91948e-18, 0.0434919
 7740, 278, 0.9725, 1.97264e-22, 7.89056e-18, 0.0434918
 7770, 279, 0.9725, 2.24841e-22, 8.99365e-18, 0.0434918
 7800, 280, 0.9725, 2.56152e-22, 1.02461e-17, 0.0434918
 7830, 281, 0.9725, 2.91686e-22, 1.16675e-17, 0.0434918
 7860, 282, 0.9725, 3.31994e-22, 1.32798e-17, 0.0434918
 7890, 283, 0.9725, 3.77697e-22, 1.51079e-17, 0.0434918
 7920, 284, 0.9725, 4.29492e-22, 1.71797e-17, 0.0434918
 7950, 285, 0.9725, 4.88165e-22, 1.95266e-17, 0.0434918
 7980, 286, 0.9725, 5.54599e-22, 2.2184e-17, 0.0434918
 8010, 287, 0.9725, 6.29787e-22, 2.51915e-17, 0.0434918
 8040, 288, 0.9725, 7.14845e-22, 2.85938e-17, 0.0434918
 8070, 289, 0.9725, 8.11024e-22, 3.2441e-17, 0.0434918
 8100, 290, 0.9725, 9.19732e-22, 3.67893e-17, 0.0434918
 8130, 291, 0.9725, 1.04255e-21, 4.17018e-17, 0.0434918
 8160, 292, 0.9725, 1.18124e-21, 4.72494e-17, 0.0434918
 8190, 293, 0.9725, 1.33778e-21, 5.35114e-17, 0.0434918
 8220, 294, 0.9725, 1.51441e-21, 6.05766e-17, 0.0434918
 8250, 295, 0.9725, 1.71362e-21, 6.85448e-17, 0.0434918
 8280, 296, 0.9725, 1.93818e-21, 7.75274e-17, 0.0434918
 8310, 297, 0.9725, 2.19123e-21, 8.76493e-17, 0.0434918
 8340, 298, 0.9725, 2.47625e-21, 9.90501e-17, 0.0434918
 8370, 299, 0.9725, 2.79715e-21, 1.11886e-16, 0.0434918
 8400, 300, 0.9725, 3.15829e-21, 1.26332e-16, 0.0434919
 8430, 301, 0.9725, 3.56455e-21, 1.42582e-16, 0.0434918
 8460, 302, 0.9725, 4.02137e-21, 1.60855e-16, 0.0434918
 8490, 303, 0.9725, 4.53485e-21, 1.81394e-16, 0.0434918
 8520, 304, 0.9725, 5.11175e-21, 2.0447e-16, 0.0434918
 8550, 305, 0.9725, 5.75966e-21, 2.30386e-16, 0.0434918
 8580, 306, 0.9725, 6.48702e-21, 2.59481e-16, 0.0434918
 8610, 307, 0.9725, 7.30324e-21, 2.9213e-16, 0.0434919
 8640, 308, 0.9725, 8.2188e-21, 3.28752e-16, 0.0434918
 8670, 309, 0.9725, 9.2454e-21, 3.69816e-16, 0.0434918
 8700, 310, 0.9725, 1.0396e-20, 4.15841e-16, 0.0434918
 8730, 311, 0.9725, 1.16852e-20, 4.67406e-16, 0.0434918
 8760, 312, 0.9725, 1.31289e-20, 5.25156e-16, 0.0434918
 8790, 313, 0.9725, 1.47451e-20, 5.89806e-16, 0.0434918
 8820, 314, 0.9725, 1.65538e-20, 6.62153e-16, 0.0434918
 8850, 315, 0.9725, 1.8577e-20, 7.43082e-16, 0.0434918
 8880, 316, 0.9725, 2.08394e-20, 8.33576e-16, 0.0434918
 8910, 317, 0.9725, 2.33681e-20, 9.34726e-16, 0.0434918
 8940, 318, 0.9725, 2.61936e-20, 1.04774e-15, 0.0434918
 8970, 319, 0.9725, 2.93494e-20, 1.17398e-15, 0.0434918
 9000, 320, 0.9725, 3.28727e-20, 1.31491e-15, 0.0434918
 9030, 321, 0.9725, 3.6805e-20, 1.4722e-15, 0.0434918
 9060, 322, 0.9725, 4.1192e-20, 1.64768e-15, 0.0434918
 9090, 323, 0.9725, 4.60846e-20, 1.84338e-15, 0.0434918
 9120, 324, 0.9725, 5.15388e-20, 2.06155e-15, 0.0434918
 9150, 325, 0.9725, 5.76171e-20, 2.30468e-15, 0.0434918
 9180, 326, 0.9725, 6.43882e-20, 2.57553e-15, 0.0434918
 9210, 327, 0.9725, 7.19284e-20, 2.87714e-15, 0.0434918
 9240, 328, 0.9725, 8.0322e-20, 3.21288e-15, 0.0434918
 9270, 329, 0.9725, 8.96622e-20, 3.58649e-15, 0.0434918
 9300, 330, 0.9725, 1.00052e-19, 4.00208e-15, 0.0434918
 9330, 331, 0.9725, 1.11605e-19, 4.46421e-15, 0.0434918
 9360, 332, 0.9725, 1.24448e-19, 4.97791e-15, 0.0434918
 9390, 333, 0.9725, 1.38718e-19, 5.54872e-15, 0.0434918
 9420, 334, 0.9725, 1.54569e-19, 6.18278e-15, 0.0434918
 9450, 335, 0.9725, 1.72171e-19, 6.88683e-15, 0.0434918
 9480, 336, 0.9725, 1.91709e-19, 7.66835e-15, 0.0434918
 9510, 337, 0.9725, 2.13389e-19, 8.53555e-15, 0.0434918
 9540, 338, 0.9725, 2.37437e-19, 9.49748e-15, 0.0434918
 9570, 339, 0.9725, 2.64103e-19, 1.05641e-14, 0.0434918
 9600, 340, 0.9725, 2.93663e-19, 1.17465e-14, 0.0434919
 9630, 341, 0.9725, 3.26417e-19, 1.30567e-14, 0.0434918
 9660, 342, 0.9725, 3.62701e-19, 1.4508e-14, 0.0434918
 9690, 343, 0.9725, 4.0288e-19, 1.61152e-14, 0.0434918
 9720, 344, 0.9725, 4.47357e-19, 1.78943e-14, 0.0434918
 9750, 345, 0.9725, 4.96577e-19, 1.98631e-14, 0.0434918
 9780, 346, 0.9725, 5.51025e-19, 2.2041e-14, 0.0434918
 9810, 347, 0.9725, 6.11239e-19, 2.44496e-14, 0.0434918
 9840, 348, 0.9725, 6.77807e-19, 2.71123e-14, 0.0434918
 9870, 349, 0.9725, 7.51374e-19, 3.0055e-14, 0.0434918
 9900, 350, 0.9725, 8.32651e-19, 3.3306e-14, 0.0434918
 9930, 351, 0.9725, 9.22416e-19, 3.68966e-14, 0.0434918
 9960, 352, 0.9725, 1.02152e-18, 4.08609e-14, 0.0434918
 9990, 353, 0.9725, 1.13091e-18, 4.52364e-14, 0.0434919
 10020, 354, 0.9725, 1.2516e-18, 5.00642e-14, 0.0434918
 10050, 355, 0.9725, 1.38473e-18, 5.53893e-14, 0.0434918
 10080, 356, 0.9725, 1.53153e-18, 6.12612e-14, 0.0434918
 10110, 357, 0.9725, 1.69335e-18, 6.77338e-14, 0.0434918
 10140, 358, 0.9725, 1.87166e-18, 7.48665e-14, 0.0434918
 10170, 359, 0.9725, 2.0681e-18, 8.27242e-14, 0.0434918
 10200, 360, 0.9725, 2.28444e-18, 9.13777e-14, 0.0434918
 10230, 361, 0.9725, 2.52262e-18, 1.00905e-13, 0.0434918
 10260, 362, 0.9725, 2.78476e-18, 1.1139e-13, 0.0434918
 10290, 363, 0.9725, 3.07318e-18, 1.22927e-13, 0.0434918
 10320, 364, 0.9725, 3.39043e-18, 1.35617e-13, 0.0434918
 10350, 365, 0.9725, 3.73927e-18, 1.49571e-13, 0.0434918
 10380, 366, 0.9725, 4.12275e-18, 1.6491e-13, 0.0434918
 10410, 367, 0.9725, 4.54416e-18, 1.81767e-13, 0.0434918
 10440, 368, 0.9725, 5.00713e-18, 2.00285e-13, 0.0434918
 10470, 369, 0.9725, 5.51561e-18, 2.20624e-13, 0.0434918
 10500, 370, 0.9725, 6.07389e-18, 2.42955e-13, 0.0434918
 10530, 371, 0.9725, 6.68667e-18, 2.67467e-13, 0.0434918
 10560, 372, 0.9725, 7.35909e-18, 2.94364e-13, 0.0434918
 10590, 373, 0.9725, 8.09673e-18, 3.23869e-13, 0.0434918
 10620, 374, 0.9725, 8.90567e-18, 3.56227e-13, 0.0434918
 10650, 375, 0.9725, 9.79255e-18, 3.91702e-13, 0.0434918
 10680, 376, 0.9725, 1.07646e-17, 4.30584e-13, 0.0434918
 10710, 377, 0.9725, 1.18297e-17, 4.73189e-13, 0.0434918
 10740, 378, 0.9725, 1.29964e-17, 5.19857e-13, 0.0434918
 10770, 379, 0.9725, 1.42741e-17, 5.70964e-13, 0.0434918
 10800, 380, 0.9725, 1.56729e-17, 6.26916e-13, 0.0434918
 10830, 381, 0.9725, 1.72038e-17, 6.88153e-13, 0.0434918
 10860, 382, 0.9725, 1.88789e-17, 7.55158e-13, 0.0434918
 10890, 383, 0.9725, 2.07113e-17, 8.28451e-13, 0.0434918
 10920, 384, 0.9725, 2.27151e-17, 9.08603e-13, 0.0434918
 10950, 385, 0.9725, 2.49057e-17, 9.96229e-13, 0.0434918
 10980, 386, 0.9725, 2.73e-17, 1.092e-12, 0.0434918
 11010, 387, 0.9725, 2.99162e-17, 1.19665e-12, 0.0434918
 11040, 388, 0.9725, 3.27739e-17, 1.31096e-12, 0.0434918
 11070, 389, 0.9725, 3.58948e-17, 1.43579e-12, 0.0434918
 11100, 390, 0.9725, 3.93021e-17, 1.57208e-12, 0.0434918
 11130, 391, 0.9725, 4.30211e-17, 1.72084e-12, 0.0434918
 11160, 392, 0.9725, 4.70791e-17, 1.88317e-12, 0.0434918
 11190, 393, 0.9725, 5.1506e-17, 2.06024e-12, 0.0434918
 11220, 394, 0.9725, 5.6334e-17, 2.25336e-12, 0.0434918
 11250, 395, 0.9725, 6.15981e-17, 2.46392e-12, 0.0434918
 11280, 396, 0.9725, 6.7336e-17, 2.69344e-12, 0.0434918
 11310, 397, 0.9725, 7.35889e-17, 2.94356e-12, 0.0434918
 11340, 398, 0.9725, 8.04012e-17, 3.21605e-12, 0.0434918
 11370, 399, 0.9725, 8.78209e-17, 3.51284e-12, 0.0434918
 11400, 400, 0.9725, 9.59002e-17, 3.83601e-12, 0.0434918
 11430, 401, 0.9725, 1.04695e-16, 4.18782e-12, 0.0434918
 11460, 402, 0.9725, 1.14268e-16, 4.57071e-12, 0.0434918
 11490, 403, 0.9725, 1.24683e-16, 4.98731e-12, 0.0434918
 11520, 404, 0.9725, 1.36012e-16, 5.44048e-12, 0.0434918
 11550, 405, 0.9725, 1.48333e-16, 5.93331e-12, 0.0434918
 11580, 406, 0.9725, 1.61728e-16, 6.46913e-12, 0.0434918
 11610, 407, 0.9725, 1.76289e-16, 7.05154e-12, 0.0434918
 11640, 408, 0.9725, 1.92111e-16, 7.68445e-12, 0.0434918
 11670, 409, 0.9725, 2.09301e-16, 8.37205e-12, 0.0434918
 11700, 410, 0.9725, 2.27972e-16, 9.11889e-12, 0.0434918
 11730, 411, 0.9725, 2.48247e-16, 9.92987e-12, 0.0434918
 11760, 412, 0.9725, 2.70257e-16, 1.08103e-11, 0.0434919
 11790, 413, 0.9725, 2.94146e-16, 1.17658e-11, 0.0434918
 11820, 414, 0.9725, 3.20068e-16, 1.28027e-11, 0.0434918
 11850, 415, 0.9725, 3.48188e-16, 1.39275e-11, 0.0434918
 11880, 416, 0.9725, 3.78687e-16, 1.51475e-11, 0.0434917
 11910, 417, 0.9725, 4.11757e-16, 1.64703e-11, 0.0434918
 11940, 418, 0.9725, 4.47606e-16, 1.79043e-11, 0.0434918
 11970, 419, 0.9725, 4.8646e-16, 1.94584e-11, 0.0434917
 12000, 420, 0.9725, 5.28559e-16, 2.11423e-11, 0.0434918
 12030, 421, 0.9725, 5.74163e-16, 2.29665e-11, 0.0434918
 12060, 422, 0.9725, 6.23555e-16, 2.49422e-11, 0.0434918
 12090, 423, 0.9725, 6.77034e-16, 2.70814e-11, 0.0434918
 12120, 424, 0.9725, 7.34927e-16, 2.93971e-11, 0.0434918
 12150, 425, 0.9725, 7.97582e-16, 3.19033e-11, 0.0434919
 12180, 426, 0.9725, 8.65377e-16, 3.46151e-11, 0.0434918
 12210, 427, 0.9725, 9.38715e-16, 3.75486e-11, 0.0434918
 12240, 428, 0.9725, 1.01803e-15, 4.07213e-11, 0.0434918
 12270, 429, 0.9725, 1.1038e-15, 4.41519e-11, 0.0434918
 12300, 430, 0.9725, 1.19651e-15, 4.78604e-11, 0.0434918
 12330, 431, 0.9725, 1.29672e-15, 5.18686e-11, 0.0434918
 12360, 432, 0.9725, 1.40499e-15, 5.61997e-11, 0.0434918
 12390, 433, 0.9725, 1.52196e-15, 6.08785e-11, 0.0434918
 12420, 434, 0.9725, 1.6483e-15, 6.5932e-11, 0.0434918
 12450, 435, 0.9725, 1.78472e-15, 7.13889e-11, 0.0434918
 12480, 436, 0.9725, 1.932e-15, 7.728e-11, 0.0434918
 12510, 437, 0.9725, 2.09097e-15, 8.36387e-11, 0.0434918
 12540, 438, 0.9725, 2.26251e-15, 9.05004e-11, 0.0434918
 12570, 439, 0.9725, 2.44759e-15, 9.79034e-11, 0.0434918
 12600, 440, 0.9725, 2.64722e-15, 1.05889e-10, 0.0434919
 12630, 441, 0.9725, 2.8625e-15, 1.145e-10, 0.0434918
 12660, 442, 0.9725, 3.09461e-15, 1.23785e-10, 0.0434918
 12690, 443, 0.9725, 3.34482e-15, 1.33793e-10, 0.0434918
 12720, 444, 0.9725, 3.61448e-15, 1.44579e-10, 0.0434918
 12750, 445, 0.9725, 3.90503e-15, 1.56201e-10, 0.0434918
 12780, 446, 0.9725, 4.21802e-15, 1.68721e-10, 0.0434918
 12810, 447, 0.9725, 4.55514e-15, 1.82205e-10, 0.0434918
 12840, 448, 0.9725, 4.91814e-15, 1.96726e-10, 0.0434918
 12870, 449, 0.9725, 5.30895e-15, 2.12358e-10, 0.0434918
 12900, 450, 0.9725, 5.72959e-15, 2.29184e-10, 0.0434918
 12930, 451, 0.9725, 6.18227e-15, 2.47291e-10, 0.0434918
 12960, 452, 0.9725, 6.66931e-15, 2.66772e-10, 0.0434918
 12990, 453, 0.9725, 7.19322e-15, 2.87729e-10, 0.0434918
 13020, 454, 0.9725, 7.75667e-15, 3.10267e-10, 0.0434918
 13050, 455, 0.9725, 8.36252e-15, 3.34501e-10, 0.0434918
 13080, 456, 0.9725, 9.01383e-15, 3.60553e-10, 0.0434918
 13110, 457, 0.9725, 9.71388e-15, 3.88555e-10, 0.0434918
 13140, 458, 0.9725, 1.04662e-14, 4.18646e-10, 0.0434918
 13170, 459, 0.9725, 1.12744e-14, 4.50975e-10, 0.0434917
 13200, 460, 0.9725, 1.21426e-14, 4.85703e-10, 0.0434918
 13230, 461, 0.9725, 1.3075e-14, 5.22999e-10, 0.0434918
 13260, 462, 0.9725, 1.40761e-14, 5.63045e-10, 0.0434918
 13290, 463, 0.9725, 1.51509e-14, 6.06036e-10, 0.0434918
 13320, 464, 0.9725, 1.63045e-14, 6.5218e-10, 0.0434918
 13350, 465, 0.9725, 1.75424e-14, 7.01697e-10, 0.0434918
 13380, 466, 0.9725, 1.88706e-14, 7.54825e-10, 0.0434918
 13410, 467, 0.9725, 2.02954e-14, 8.11815e-10, 0.0434918
 13440, 468, 0.9725, 2.18234e-14, 8.72936e-10, 0.0434918
 13470, 469, 0.9725, 2.34619e-14, 9.38476e-10, 0.0434918
 13500, 470, 0.9725, 2.52185e-14, 1.00874e-09, 0.0434918
 13530, 471, 0.9725, 2.71013e-14, 1.08405e-09, 0.0434918
 13560, 472, 0.9725, 2.91191e-14, 1.16476e-09, 0.0434918
 13590, 473, 0.9725, 3.12811e-14, 1.25124e-09, 0.0434918
 13620, 474, 0.9725, 3.35972e-14, 1.34389e-09, 0.0434918
 13650, 475, 0.9725, 3.60779e-14, 1.44312e-09, 0.0434918
 13680, 476, 0.9725, 3.87344e-14, 1.54937e-09, 0.0434918
 13710, 477, 0.9725, 4.15786e-14, 1.66314e-09, 0.0434918
 13740, 478, 0.9725, 4.46232e-14, 1.78493e-09, 0.0434918
 13770, 479, 0.9725, 4.78818e-14, 1.91527e-09, 0.0434918
 13800, 480, 0.9725, 5.13687e-14, 2.05475e-09, 0.0434918
 13830, 481, 0.9725, 5.50992e-14, 2.20397e-09, 0.0434918
 13860, 482, 0.9725, 5.90898e-14, 2.36359e-09, 0.0434918
 13890, 483, 0.9725, 6.33576e-14, 2.5343e-09, 0.0434918
 13920, 484, 0.9725, 6.79211e-14, 2.71684e-09, 0.0434917
 13950, 485, 0.9725, 7.28e-14, 2.912e-09, 0.0434918
 13980, 486, 0.9725, 7.80151e-14, 3.1206e-09, 0.0434918
 14010, 487, 0.9725, 8.35886e-14, 3.34354e-09, 0.0434918
 14040, 488, 0.9725, 8.9544e-14, 3.58176e-09, 0.0434918
 14070, 489, 0.9725, 9.59064e-14, 3.83625e-09, 0.0434918
 14100, 490, 0.9725, 1.02702e-13, 4.10809e-09, 0.0434918
 14130, 491, 0.9725, 1.0996e-13, 4.39841e-09, 0.0434918
 14160, 492, 0.9725, 1.1771e-13, 4.7084e-09, 0.0434918
 14190, 493, 0.9725, 1.25983e-13, 5.03934e-09, 0.0434918
 14220, 494, 0.9725, 1.34815e-13, 5.39258e-09, 0.0434918
 14250, 495, 0.9725, 1.44239e-13, 5.76957e-09, 0.0434918
 14280, 496, 0.9725, 1.54296e-13, 6.17183e-09, 0.0434917
 14310, 497, 0.9725, 1.65025e-13, 6.60098e-09, 0.0434918
 14340, 498, 0.9725, 1.76469e-13, 7.05874e-09, 0.0434918
 14370, 499, 0.9725, 1.88673e-13, 7.54694e-09, 0.0434918
 14400, 500, 0.9725, 2.01687e-13, 8.0675e-09, 0.0434918
 14430, 501, 0.9725, 2.15562e-13, 8.62248e-09, 0.0434918
 14460, 502, 0.9725, 2.30352e-13, 9.21406e-09, 0.0434918
 14490, 503, 0.9725, 2.46114e-13, 9.84455e-09, 0.0434917
 14520, 504, 0.9725, 2.6291e-13, 1.05164e-08, 0.0434918
 14550, 505, 0.9725, 2.80804e-13, 1.12322e-08, 0.0434918
 14580, 506, 0.9725, 2.99866e-13, 1.19946e-08, 0.0434918
 14610, 507, 0.9725, 3.20168e-13, 1.28067e-08, 0.0434918
 14640, 508, 0.9725, 3.41786e-13, 1.36715e-08, 0.0434918
 14670, 509, 0.9725, 3.64804e-13, 1.45922e-08, 0.0434918
 14700, 510, 0.9725, 3.89307e-13, 1.55723e-08, 0.0434918
 14730, 511, 0.9725, 4.15387e-13, 1.66155e-08, 0.0434918
 14760, 512, 0.9725, 4.43141e-13, 1.77257e-08, 0.0434918
 14790, 513, 0.9725, 4.72672e-13, 1.89069e-08, 0.0434918
 14820, 514, 0.9725, 5.04088e-13, 2.01635e-08, 0.0434918
 14850, 515, 0.9725, 5.37504e-13, 2.15001e-08, 0.0434918
 14880, 516, 0.9725, 5.73042e-13, 2.29217e-08, 0.0434918
 14910, 517, 0.9725, 6.1083e-13, 2.44332e-08, 0.0434918
 14940, 518, 0.9725, 6.51006e-13, 2.60402e-08, 0.0434918
 14970, 519, 0.9725, 6.93712e-13, 2.77485e-08, 0.0434918
 15000, 520, 0.9725, 7.39102e-13, 2.95641e-08, 0.0434918
 15030, 521, 0.9725, 7.87335e-13, 3.14934e-08, 0.0434918
 15060, 522, 0.9725, 8.38583e-13, 3.35433e-08, 0.0434918
 15090, 523, 0.9725, 8.93025e-13, 3.5721e-08, 0.0434918
 15120, 524, 0.9725, 9.50852e-13, 3.80341e-08, 0.0434918
 15150, 525, 0.9725, 1.01226e-12, 4.04906e-08, 0.0434918
 15180, 526, 0.9725, 1.07747e-12, 4.30989e-08, 0.0434918
 15210, 527, 0.9725, 1.1467e-12, 4.58682e-08, 0.0434918
 15240, 528, 0.9725, 1.22019e-12, 4.88078e-08, 0.0434918
 15270, 529, 0.9725, 1.29819e-12, 5.19277e-08, 0.0434918
 15300, 530, 0.9725, 1.38097e-12, 5.52386e-08, 0.0434919
 15330, 531, 0.9725, 1.46879e-12, 5.87515e-08, 0.0434918
 15360, 532, 0.9725, 1.56196e-12, 6.24783e-08, 0.0434918
 15390, 533, 0.9725, 1.66078e-12, 6.64313e-08, 0.0434918
 15420, 534, 0.9725, 1.76559e-12, 7.06237e-08, 0.0434918
 15450, 535, 0.9725, 1.87673e-12, 7.50693e-08, 0.0434918
 15480, 536, 0.9725, 1.99457e-12, 7.97827e-08, 0.0434918
 15510, 537, 0.9725, 2.11948e-12, 8.47793e-08, 0.0434917
 15540, 538, 0.9725, 2.25188e-12, 9.00754e-08, 0.0434918
 15570, 539, 0.9725, 2.3922e-12, 9.5688e-08, 0.0434918
 15600, 540, 0.9725, 2.54088e-12, 1.01635e-07, 0.0434918
 15630, 541, 0.9725, 2.6984e-12, 1.07936e-07, 0.0434918
 15660, 542, 0.9725, 2.86526e-12, 1.14611e-07, 0.0434918
 15690, 543, 0.9725, 3.042e-12, 1.2168e-07, 0.0434918
 15720, 544, 0.9725, 3.22916e-12, 1.29167e-07, 0.0434918
 15750, 545, 0.9725, 3.42734e-12, 1.37094e-07, 0.0434918
 15780, 546, 0.9725, 3.63715e-12, 1.45486e-07, 0.0434918
 15810, 547, 0.9725, 3.85925e-12, 1.5437e-07, 0.0434918
 15840, 548, 0.9725, 4.09432e-12, 1.63773e-07, 0.0434918
 15870, 549, 0.9725, 4.34308e-12, 1.73723e-07, 0.0434918
 15900, 550, 0.9725, 4.60629e-12, 1.84252e-07, 0.0434919
 15930, 551, 0.9725, 4.88476e-12, 1.95391e-07, 0.0434918
 15960, 552, 0.9725, 5.17933e-12, 2.07173e-07, 0.0434918
 15990, 553, 0.9725, 5.49088e-12, 2.19635e-07, 0.0434918
 16020, 554, 0.9725, 5.82035e-12, 2.32814e-07, 0.0434918
 16050, 555, 0.9725, 6.16873e-12, 2.46749e-07, 0.0434918
 16080, 556, 0.9725, 6.53703e-12, 2.61481e-07, 0.0434918
 16110, 557, 0.9725, 6.92636e-12, 2.77054e-07, 0.0434918
 16140, 558, 0.9725, 7.33786e-12, 2.93514e-07, 0.0434917
 16170, 559, 0.9725, 7.77272e-12, 3.10909e-07, 0.0434918
 16200, 560, 0.9725, 8.23222e-12, 3.29289e-07, 0.0434918
 16230, 561, 0.9725, 8.71768e-12, 3.48707e-07, 0.0434918
 16260, 562, 0.9725, 9.2305e-12, 3.6922e-07, 0.0434919
 16290, 563, 0.9725, 9.77215e-12, 3.90886e-07, 0.0434919
 16320, 564, 0.9725, 1.03442e-11, 4.13767e-07, 0.0434918
 16350, 565, 0.9725, 1.09482e-11, 4.37928e-07, 0.0434918
 16380, 566, 0.9725, 1.15859e-11, 4.63438e-07, 0.0434918
 16410, 567, 0.9725, 1.22592e-11, 4.90367e-07, 0.0434918
 16440, 568, 0.9725, 1.29698e-11, 5.18791e-07, 0.0434918
 16470, 569, 0.9725, 1.37197e-11, 5.48789e-07, 0.0434918
 16500, 570, 0.9725, 1.45111e-11, 5.80445e-07, 0.0434918
 16530, 571, 0.9725, 1.53461e-11, 6.13844e-07, 0.0434918
 16560, 572, 0.9725, 1.6227e-11, 6.4908e-07, 0.0434918
 16590, 573, 0.9725, 1.71562e-11, 6.86248e-07, 0.0434918
 16620, 574, 0.9725, 1.81362e-11, 7.25449e-07, 0.0434918
 16650, 575, 0.9725, 1.91697e-11, 7.66789e-07, 0.0434918
 16680, 576, 0.9725, 2.02595e-11, 8.10378e-07, 0.0434918
 16710, 577, 0.9725, 2.14084e-11, 8.56334e-07, 0.0434919
 16740, 578, 0.9725, 2.26195e-11, 9.04779e-07, 0.0434918
 16770, 579, 0.9725, 2.3896e-11, 9.55842e-07, 0.0434918
 16800, 580, 0.9725, 2.52414e-11, 1.00966e-06, 0.0434918
 16830, 581, 0.9725, 2.66591e-11, 1.06636e-06, 0.0434918
 16860, 582, 0.9725, 2.81528e-11, 1.12611e-06, 0.0434918
 16890, 583, 0.9725, 2.97264e-11, 1.18906e-06, 0.0434918
 16920, 584, 0.9725, 3.1384e-11, 1.25536e-06, 0.0434918
 16950, 585, 0.9725, 3.31298e-11, 1.32519e-06, 0.0434918
 16980, 586, 0.9725, 3.49683e-11, 1.39873e-06, 0.0434918
 17010, 587, 0.9725, 3.69042e-11, 1.47617e-06, 0.0434918
 17040, 588, 0.9725, 3.89425e-11, 1.5577e-06, 0.0434918
 17070, 589, 0.9725, 4.10881e-11, 1.64353e-06, 0.0434918
 17100, 590, 0.9725, 4.33466e-11, 1.73387e-06, 0.0434918
 17130, 591, 0.9725, 4.57236e-11, 1.82895e-06, 0.0434918
 17160, 592, 0.9725, 4.8225e-11, 1.929e-06, 0.0434918
 17190, 593, 0.9725, 5.0857e-11, 2.03428e-06, 0.0434918
 17220, 594, 0.9725, 5.3626e-11, 2.14504e-06, 0.0434918
 17250, 595, 0.9725, 5.65389e-11, 2.26156e-06, 0.0434918
 17280, 596, 0.9725, 5.96028e-11, 2.38411e-06, 0.0434918
 17310, 597, 0.9725, 6.28251e-11, 2.513e-06, 0.0434918
 17340, 598, 0.9725, 6.62136e-11, 2.64854e-06, 0.0434918
 17370, 599, 0.9725, 6.97764e-11, 2.79106e-06, 0.0434918
 17400, 600, 0.9725, 7.35222e-11, 2.94089e-06, 0.0434918
 17430, 601, 0.9725, 7.74597e-11, 3.09839e-06, 0.0434918
 17460, 602, 0.9725, 8.15984e-11, 3.26394e-06, 0.0434919
 17490, 603, 0.9725, 8.5948e-11, 3.43792e-06, 0.0434918
 17520, 604, 0.9725, 9.05187e-11, 3.62075e-06, 0.0434918
 17550, 605, 0.9725, 9.53213e-11, 3.81285e-06, 0.0434918
 17580, 606, 0.9725, 1.00367e-10, 4.01467e-06, 0.0434919
 17610, 607, 0.9725, 1.05667e-10, 4.22668e-06, 0.0434918
 17640, 608, 0.9725, 1.11234e-10, 4.44937e-06, 0.0434918
 17670, 609, 0.9725, 1.17081e-10, 4.68324e-06, 0.0434918
 17700, 610, 0.9725, 1.23221e-10, 4.92884e-06, 0.0434918
 17730, 611, 0.9725, 1.29668e-10, 5.18671e-06, 0.0434919
 17760, 612, 0.9725, 1.36436e-10, 5.45745e-06, 0.0434919
 17790, 613, 0.9725, 1.43542e-10, 5.74166e-06, 0.0434919
 17820, 614, 0.9725, 1.50999e-10, 6.03998e-06, 0.0434918
 17850, 615, 0.9725, 1.58827e-10, 6.35308e-06, 0.0434919
 17880, 616, 0.9725, 1.67041e-10, 6.68164e-06, 0.0434919
 17910, 617, 0.9725, 1.7566e-10, 7.0264e-06, 0.0434919
 17940, 618, 0.9725, 1.84703e-10, 7.38812e-06, 0.0434919
 17970, 619, 0.9725, 1.9419e-10, 7.76758e-06, 0.0434919
 18000, 620, 0.9725, 2.0414e-10, 8.16562e-06, 0.0434918
 18030, 621, 0.9725, 2.14577e-10, 8.58309e-06, 0.0434919
 18060, 622, 0.9725, 2.25523e-10, 9.02091e-06, 0.0434919
 18090, 623, 0.9725, 2.37e-10, 9.48e-06, 0.0434918
 18120, 624, 0.9725, 2.49034e-10, 9.96135e-06, 0.0434919
 18150, 625, 0.9725, 2.6165e-10, 1.0466e-05, 0.0434918
 18180, 626, 0.9725, 2.74875e-10, 1.0995e-05, 0.0434918
 18210, 627, 0.9725, 2.88737e-10, 1.15495e-05, 0.0434919
 18240, 628, 0.9725, 3.03264e-10, 1.21306e-05, 0.0434919
 18270, 629, 0.9725, 3.18488e-10, 1.27395e-05, 0.0434919
 18300, 630, 0.9725, 3.3444e-10, 1.33776e-05, 0.0434919
 18330, 631, 0.9725, 3.51153e-10, 1.40461e-05, 0.0434918
 18360, 632, 0.9725, 3.68661e-10, 1.47465e-05, 0.0434919
 18390, 633, 0.9725, 3.87001e-10, 1.54801e-05, 0.0434919
 18420, 634, 0.9725, 4.0621e-10, 1.62484e-05, 0.0434919
 18450, 635, 0.9725, 4.26327e-10, 1.70531e-05, 0.0434919
 18480, 636, 0.9725, 4.47392e-10, 1.78957e-05, 0.0434919
 18510, 637, 0.9725, 4.69448e-10, 1.87779e-05, 0.0434919
 18540, 638, 0.9725, 4.9254e-10, 1.97016e-05, 0.0434919
 18570, 639, 0.9725, 5.16713e-10, 2.06685e-05, 0.0434919
 18600, 640, 0.9725, 5.42016e-10, 2.16806e-05, 0.0434919
 18630, 641, 0.9725, 5.68498e-10, 2.27399e-05, 0.0434919
 18660, 642, 0.9725, 5.96212e-10, 2.38485e-05, 0.0434919
 18690, 643, 0.9725, 6.25212e-10, 2.50085e-05, 0.043492
 18720, 644, 0.9725, 6.55555e-10, 2.62222e-05, 0.043492
 18750, 645, 0.9725, 6.87299e-10, 2.7492e-05, 0.043492
 18780, 646, 0.9725, 7.20507e-10, 2.88203e-05, 0.0434919
 18810, 647, 0.9725, 7.55241e-10, 3.02097e-05, 0.043492
 18840, 648, 0.972499, 7.91569e-10, 3.16628e-05, 0.043492
 18870, 649, 0.972499, 8.2956e-10, 3.31824e-05, 0.043492
 18900, 650, 0.972499, 8.69286e-10, 3.47714e-05, 0.043492
 18930, 651, 0.972499, 9.10822e-10, 3.64329e-05, 0.043492
 18960, 652, 0.972499, 9.54247e-10, 3.81699e-05, 0.043492
 18990, 653, 0.972499, 9.99641e-10, 3.99856e-05, 0.043492
 19020, 654, 0.972499, 1.04709e-09, 4.18836e-05, 0.043492
 19050, 655, 0.972499, 1.09668e-09, 4.38672e-05, 0.0434921
 19080, 656, 0.972499, 1.14851e-09, 4.59403e-05, 0.0434921
 19110, 657, 0.972499, 1.20266e-09, 4.81065e-05, 0.0434921
 19140, 658, 0.972499, 1.25925e-09, 5.03698e-05, 0.0434921
 19170, 659, 0.972499, 1.31836e-09, 5.27345e-05, 0.0434921
 19200, 660, 0.972499, 1.38012e-09, 5.52047e-05, 0.0434921
 19230, 661, 0.972499, 1.44463e-09, 5.7785e-05, 0.0434922
 19260, 662, 0.972499, 1.512e-09, 6.048e-05, 0.0434921
 19290, 663, 0.972499, 1.58236e-09, 6.32945e-05, 0.0434922
 19320, 664, 0.972499, 1.65584e-09, 6.62336e-05, 0.0434922
 19350, 665, 0.972499, 1.73256e-09, 6.93024e-05, 0.0434922
 19380, 666, 0.972499, 1.81266e-09, 7.25064e-05, 0.0434922
 19410, 667, 0.972499, 1.89628e-09, 7.58513e-05, 0.0434923
 19440, 668, 0.972499, 1.98357e-09, 7.93428e-05, 0.0434923
 19470, 669, 0.972499, 2.07468e-09, 8.29871e-05, 0.0434923
 19500, 670, 0.972499, 2.16977e-09, 8.67906e-05, 0.0434923
 19530, 671, 0.972499, 2.26899e-09, 9.07598e-05, 0.0434923
 19560, 672, 0.972498, 2.37254e-09, 9.49015e-05, 0.0434923
 19590, 673, 0.972498, 2.48057e-09, 9.92229e-05, 0.0434923
 19620, 674, 0.972498, 2.59328e-09, 0.000103731, 0.0434924
 19650, 675, 0.972498, 2.71086e-09, 0.000108434, 0.0434925
 19680, 676, 0.972498, 2.8335e-09, 0.00011334, 0.0434924
 19710, 677, 0.972498, 2.96141e-09, 0.000118457, 0.0434925
 19740, 678, 0.972498, 3.09482e-09, 0.000123793, 0.0434925
 19770, 679, 0.972498, 3.23393e-09, 0.000129357, 0.0434926
 19800, 680, 0.972498, 3.37898e-09, 0.000135159, 0.0434926
 19830, 681, 0.972498, 3.53022e-09, 0.000141209, 0.0434926
 19860, 682, 0.972498, 3.68788e-09, 0.000147515, 0.0434926
 19890, 683, 0.972497, 3.85224e-09, 0.00015409, 0.0434927
 19920, 684, 0.972497, 4.02355e-09, 0.000160942, 0.0434927
 19950, 685, 0.972497, 4.2021e-09, 0.000168084, 0.0434928
 19980, 686, 0.972497, 4.38818e-09, 0.000175527, 0.0434928
 20010, 687, 0.972497, 4.58208e-09, 0.000183283, 0.0434928
 20040, 688, 0.972497, 4.78412e-09, 0.000191365, 0.0434929
 20070, 689, 0.972497, 4.99462e-09, 0.000199785, 0.0434929
 20100, 690, 0.972497, 5.21392e-09, 0.000208557, 0.043493
 20130, 691, 0.972496, 5.44236e-09, 0.000217694, 0.043493
 20160, 692, 0.972496, 5.6803e-09, 0.000227212, 0.0434931
 20190, 693, 0.972496, 5.92812e-09, 0.000237125, 0.0434932
 20220, 694, 0.972496, 6.18621e-09, 0.000247448, 0.0434932
 20250, 695, 0.972496, 6.45496e-09, 0.000258199, 0.0434933
 20280, 696, 0.972495, 6.7348e-09, 0.000269392, 0.0434934
 20310, 697, 0.972495, 7.02616e-09, 0.000281046, 0.0434934
 20340, 698, 0.972495, 7.32948e-09, 0.000293179, 0.0434935
 20370, 699, 0.972495, 7.64523e-09, 0.000305809, 0.0434935
 20400, 700, 0.972495, 7.9739e-09, 0.000318956, 0.0434937
 20430, 701, 0.972494, 8.31597e-09, 0.000332639, 0.0434937
 20460, 702, 0.972494, 8.67197e-09, 0.000346879, 0.0434938
 20490, 703, 0.972494, 9.04243e-09, 0.000361697, 0.0434939
 20520, 704, 0.972494, 9.42791e-09, 0.000377116, 0.043494
 20550, 705, 0.972493, 9.82899e-09, 0.00039316, 0.0434941
 20580, 706, 0.972493, 1.02463e-08, 0.00040985, 0.0434942
 20610, 707, 0.972493, 1.06803e-08, 0.000427213, 0.0434943
 20640, 708, 0.972492, 1.11318e-08, 0.000445274, 0.0434944
 20670, 709, 0.972492, 1.16015e-08, 0.000464059, 0.0434945
 20700, 710, 0.972492, 1.20899e-08, 0.000483596, 0.0434946
 20730, 711, 0.972491, 1.25978e-08, 0.000503914, 0.0434947
 20760, 712, 0.972491, 1.3126e-08, 0.000525041, 0.0434949
 20790, 713, 0.97249, 1.36752e-08, 0.000547008, 0.043495
 20820, 714, 0.97249, 1.42462e-08, 0.000569847, 0.0434951
 20850, 715, 0.97249, 1.48398e-08, 0.00059359, 0.0434952
 20880, 716, 0.972489, 1.54568e-08, 0.000618272, 0.0434954
 20910, 717, 0.972489, 1.60982e-08, 0.000643927, 0.0434956
 20940, 718, 0.972488, 1.67648e-08, 0.000670592, 0.0434957
 20970, 719, 0.972488, 1.74576e-08, 0.000698303, 0.0434959
 21000, 720, 0.972487, 1.81775e-08, 0.000727101, 0.0434961
 21030, 721, 0.972487, 1.89256e-08, 0.000757024, 0.0434962
 21060, 722, 0.972486, 1.97029e-08, 0.000788115, 0.0434963
 21090, 723, 0.972485, 2.05104e-08, 0.000820416, 0.0434966
 21120, 724, 0.972485, 2.13493e-08, 0.000853973, 0.0434967
 21150, 725, 0.972484, 2.22208e-08, 0.000888831, 0.043497
 21180, 726, 0.972483, 2.31259e-08, 0.000925037, 0.0434972
 21210, 727, 0.972483, 2.4066e-08, 0.000962642, 0.0434974
 21240, 728, 0.972482, 2.50424e-08, 0.00100169, 0.0434975
 21270, 729, 0.972481, 2.60562e-08, 0.00104225, 0.0434978
 21300, 730, 0.97248, 2.7109e-08, 0.00108436, 0.0434981
 21330, 731, 0.97248, 2.82021e-08, 0.00112808, 0.0434983
 21360, 732, 0.972479, 2.93369e-08, 0.00117348, 0.0434986
 21390, 733, 0.972478, 3.05151e-08, 0.0012206, 0.0434989
 21420, 734, 0.972477, 3.1738e-08, 0.00126952, 0.0434991
 21450, 735, 0.972476, 3.30074e-08, 0.0013203, 0.0434994
 21480, 736, 0.972475, 3.43249e-08, 0.001373, 0.0434997
 21510, 737, 0.972474, 3.56922e-08, 0.00142769, 0.0435
 21540, 738, 0.972473, 3.71111e-08, 0.00148444, 0.0435003
 21570, 739, 0.972472, 3.85834e-08, 0.00154334, 0.0435007
 21600, 740, 0.97247, 4.01111e-08, 0.00160444, 0.043501
 21630, 741, 0.972469, 4.16961e-08, 0.00166784, 0.0435014
 21660, 742, 0.972468, 4.33403e-08, 0.00173361, 0.0435017
 21690, 743, 0.972467, 4.5046e-08, 0.00180184, 0.0435022
 21720, 744, 0.972465, 4.68153e-08, 0.00187261, 0.0435026
 21750, 745, 0.972464, 4.86503e-08, 0.00194601, 0.043503
 21780, 746, 0.972462, 5.05535e-08, 0.00202214, 0.0435034
 21810, 747, 0.972461, 5.25271e-08, 0.00210109, 0.0435039
 21840, 748, 0.972459, 5.45738e-08, 0.00218295, 0.0435043
 21870, 749, 0.972458, 5.66959e-08, 0.00226784, 0.0435048
 21900, 750, 0.972456, 5.88961e-08, 0.00235585, 0.0435053
 21930, 751, 0.972454, 6.11772e-08, 0.00244709, 0.0435058
 21960, 752, 0.972452, 6.35419e-08, 0.00254168, 0.0435064
 21990, 753, 0.97245, 6.59931e-08, 0.00263972, 0.0435069
 22020, 754, 0.972448, 6.85338e-08, 0.00274135, 0.0435075
 22050, 755, 0.972446, 7.11671e-08, 0.00284669, 0.043508
 22080, 756, 0.972444, 7.38962e-08, 0.00295585, 0.0435088
 22110, 757, 0.972442, 7.67243e-08, 0.00306897, 0.0435094
 22140, 758, 0.972439, 7.96548e-08, 0.00318619, 0.04351
 22170, 759, 0.972437, 8.26913e-08, 0.00330765, 0.0435107
 22200, 760, 0.972434, 8.58372e-08, 0.00343349, 0.0435115
 22230, 761, 0.972432, 8.90964e-08, 0.00356386, 0.0435121
 22260, 762, 0.972429, 9.24727e-08, 0.00369891, 0.043513
 22290, 763, 0.972426, 9.597e-08, 0.0038388, 0.0435137
 22320, 764, 0.972423, 9.95925e-08, 0.0039837, 0.0435146
 22350, 765, 0.97242, 1.03344e-07, 0.00413377, 0.0435154
 22380, 766, 0.972417, 1.0723e-07, 0.00428919, 0.0435163
 22410, 767, 0.972414, 1.11253e-07, 0.00445014, 0.0435173
 22440, 768, 0.97241, 1.1542e-07, 0.00461679, 0.0435182
 22470, 769, 0.972407, 1.19734e-07, 0.00478935, 0.0435192
 22500, 770, 0.972403, 1.242e-07, 0.00496801, 0.0435202
 22530, 771, 0.972399, 1.28824e-07, 0.00515297, 0.0435211
 22560, 772, 0.972395, 1.33611e-07, 0.00534445, 0.0435223
 22590, 773, 0.972391, 1.38566e-07, 0.00554265, 0.0435235
 22620, 774, 0.972387, 1.43695e-07, 0.0057478, 0.0435245
 22650, 775, 0.972383, 1.49003e-07, 0.00596013, 0.0435258
 22680, 776, 0.972378, 1.54497e-07, 0.00617987, 0.043527
 22710, 777, 0.972373, 1.60182e-07, 0.00640727, 0.0435283
 22740, 778, 0.972369, 1.66065e-07, 0.00664258, 0.0435295
 22770, 779, 0.972363, 1.72152e-07, 0.00688606, 0.043531
 22800, 780, 0.972358, 1.78449e-07, 0.00713797, 0.0435324
 22830, 781, 0.972353, 1.84965e-07, 0.0073986, 0.0435339
 22860, 782, 0.972347, 1.91705e-07, 0.00766821, 0.0435354
 22890, 783, 0.972341, 1.98678e-07, 0.00794712, 0.043537
 22920, 784, 0.972335, 2.0589e-07, 0.0082356, 0.0435387
 22950, 785, 0.972329, 2.1335e-07, 0.00853398, 0.0435403
 22980, 786, 0.972322, 2.21064e-07, 0.00884257, 0.0435421
 23010, 787, 0.972316, 2.29043e-07, 0.00916171, 0.0435438
 23040, 788, 0.972309, 2.37293e-07, 0.00949173, 0.0435458
 23070, 789, 0.972301, 2.45824e-07, 0.00983297, 0.0435475
 23100, 790, 0.972294, 2.54645e-07, 0.0101858, 0.0435496
 23130, 791, 0.972286, 2.63765e-07, 0.0105506, 0.0435517
 23160, 792, 0.972278, 2.73193e-07, 0.0109277, 0.0435537
 23190, 793, 0.97227, 2.8294e-07, 0.0113176, 0.0435561
 23220, 794, 0.972261, 2.93015e-07, 0.0117206, 0.0435582
 23250, 795, 0.972252, 3.03428e-07, 0.0121371, 0.0435606
 23280, 796, 0.972243, 3.14191e-07, 0.0125677, 0.043563
 23310, 797, 0.972233, 3.25315e-07, 0.0130126, 0.0435655
 23340, 798, 0.972223, 3.3681e-07, 0.0134724, 0.043568
 23370, 799, 0.972213, 3.48689e-07, 0.0139475, 0.0435706
 23400, 800, 0.972202, 3.60963e-07, 0.0144385, 0.0435734