File: examples/Birch_TGA_Example/Work/Cone_ixa4_k2v/birch_tga_1step_5_tga.csv
s,C,g/g,1/s,W/g,W/g
Time,Temp,Mass,MLR,MCC,DSC
 12, 21.0003, 0.999993, 6.11641e-07, 0.0000000E+000, 0.121505
 24, 22.0003, 0.999985, 7.02365e-07, 0.0000000E+000, 0.121708
 36, 23.0003, 0.999976, 8.05766e-07, 0.0000000E+000, 0.121938
 48, 24.0003, 0.999966, 9.23498e-07, 0.0000000E+000, 0.122201
 60, 25.0003, 0.999954, 1.05742e-06, 0.0000000E+000, 0.1225
 72, 26.0003, 0.99994, 1.2096e-06, 0.0000000E+000, 0.12284
 84, 27.0003, 0.999925, 1.38236e-06, 0.0000000E+000, 0.123225
 96, 28.0003, 0.999907, 1.57829e-06, 0.0000000E+000, 0.123662
 108, 29.0003, 0.999887, 1.80028e-06, 0.0000000E+000, 0.124158
 120, 30.0003, 0.999864, 2.05153e-06, 0.0000000E+000, 0.124718
 132, 31.0003, 0.999838, 2.33562e-06, 0.0000000E+000, 0.125352
 144, 32.0003, 0.999808, 2.65649e-06, 0.0000000E+000, 0.126067
 156, 33.0003, 0.999774, 3.01853e-06, 0.0000000E+000, 0.126875
 168, 34.0003, 0.999735, 3.42658e-06, 0.0000000E+000, 0.127785
 180, 35.0003, 0.999691, 3.88597e-06, 0.0000000E+000, 0.128809
 192, 36.0003, 0.999641, 4.40258e-06, 0.0000000E+000, 0.12996
 204, 37.0003, 0.999585, 4.98285e-06, 0.0000000E+000, 0.131254
 216, 38.0003, 0.999522, 5.63384e-06, 0.0000000E+000, 0.132705
 228, 39.0003, 0.99945, 6.36325e-06, 0.0000000E+000, 0.13433
 240, 40.0003, 0.999369, 7.17944e-06, 0.0000000E+000, 0.136149
 252, 41.0003, 0.999277, 8.09149e-06, 0.0000000E+000, 0.13818
 264, 42.0003, 0.999174, 9.10918e-06, 0.0000000E+000, 0.140447
 276, 43.0003, 0.999058, 1.0243e-05, 0.0000000E+000, 0.142972
 288, 44.0003, 0.998928, 1.15042e-05, 0.0000000E+000, 0.145781
 300, 45.0003, 0.998781, 1.29047e-05, 0.0000000E+000, 0.148898
 312, 46.0003, 0.998617, 1.4457e-05, 0.0000000E+000, 0.152354
 324, 47.0003, 0.998434, 1.61741e-05, 0.0000000E+000, 0.156175
 336, 48.0003, 0.998228, 1.80696e-05, 0.0000000E+000, 0.160392
 348, 49.0003, 0.997999, 2.01572e-05, 0.0000000E+000, 0.165036
 360, 50.0003, 0.997744, 2.24507e-05, 0.0000000E+000, 0.170136
 372, 51.0003, 0.997459, 2.49637e-05, 0.0000000E+000, 0.175724
 384, 52.0003, 0.997144, 2.77091e-05, 0.0000000E+000, 0.181825
 396, 53.0003, 0.996793, 3.06987e-05, 0.0000000E+000, 0.188468
 408, 54.0003, 0.996406, 3.39427e-05, 0.0000000E+000, 0.195673
 420, 55.0003, 0.995978, 3.74491e-05, 0.0000000E+000, 0.203458
 432, 56.0003, 0.995506, 4.12227e-05, 0.0000000E+000, 0.211832
 444, 57.0003, 0.994987, 4.52644e-05, 0.0000000E+000, 0.220796
 456, 58.0003, 0.994418, 4.95698e-05, 0.0000000E+000, 0.230339
 468, 59.0003, 0.993797, 5.41286e-05, 1.65277e-38, 0.240437
 480, 60.0003, 0.993118, 5.89226e-05, 2.36862e-38, 0.251048
 492, 61.0003, 0.992381, 6.39249e-05, 3.38722e-38, 0.262109
 504, 62.0003, 0.991583, 6.90982e-05, 4.83352e-38, 0.273537
 516, 63.0003, 0.990723, 7.43934e-05, 6.88281e-38, 0.285217
 528, 64.0003, 0.989798, 7.97484e-05, 9.7804e-38, 0.297011
 540, 65.0002, 0.988809, 8.50867e-05, 1.3869e-37, 0.308745
 552, 66.0002, 0.987756, 9.03173e-05, 1.96264e-37, 0.320212
 564, 67.0002, 0.986642, 9.53341e-05, 2.77171e-37, 0.331174
 576, 68.0002, 0.985469, 0.000100017, 3.9064e-37, 0.341359
 588, 69.0002, 0.984243, 0.000104232, 5.49458e-37, 0.350468
 600, 70.0002, 0.98297, 0.000107836, 7.7131e-37, 0.358179
 612, 71.0002, 0.981658, 0.000110681, 1.08061e-36, 0.364157
 624, 72.0002, 0.980317, 0.000112618, 1.51098e-36, 0.36807
 636, 73.0002, 0.97896, 0.000113505, 2.10866e-36, 0.369604
 648, 74.0002, 0.977598, 0.000113219, 2.93713e-36, 0.368478
 660, 75.0002, 0.976247, 0.000111658, 4.0833e-36, 0.364475
 672, 76.0002, 0.974924, 0.000108763, 5.66606e-36, 0.35746
 684, 77.0002, 0.973643, 0.000104517, 7.84763e-36, 0.347403
 696, 78.0002, 0.97242, 9.89605e-05, 1.0849e-35, 0.334403
 708, 79.0002, 0.971272, 9.21961e-05, 1.49707e-35, 0.318694
 720, 80.0003, 0.970212, 8.43899e-05, 2.06208e-35, 0.300659
 732, 81.0003, 0.96925, 7.57684e-05, 2.83518e-35, 0.280815
 744, 82.0003, 0.968396, 6.66095e-05, 3.89115e-35, 0.259791
 756, 83.0003, 0.967653, 5.72266e-05, 5.33094e-35, 0.2383
 768, 84.0003, 0.967022, 4.7947e-05, 7.2906e-35, 0.217083
 780, 85.0003, 0.9665, 3.90874e-05, 9.95322e-35, 0.196853
 792, 86.0003, 0.966081, 3.09276e-05, 1.35647e-34, 0.178244
 804, 87.0003, 0.965755, 2.36877e-05, 1.84549e-34, 0.161749
 816, 88.0003, 0.965509, 1.75105e-05, 2.50652e-34, 0.147686
 828, 89.0003, 0.96533, 1.24535e-05, 3.39858e-34, 0.136181
 840, 90.0003, 0.965205, 8.49205e-06, 4.60038e-34, 0.127175
 852, 91.0004, 0.965122, 5.53148e-06, 6.21683e-34, 0.120447
 864, 92.0004, 0.965069, 3.42787e-06, 8.3874e-34, 0.11567
 876, 93.0004, 0.965037, 2.01216e-06, 1.12973e-33, 0.112455
 888, 94.0004, 0.965019, 1.11352e-06, 1.51921e-33, 0.110416
 900, 95.0004, 0.965009, 5.77975e-07, 2.03968e-33, 0.109201
 912, 96.0004, 0.965004, 2.79825e-07, 2.73409e-33, 0.108525
 924, 97.0004, 0.965002, 1.25613e-07, 3.65912e-33, 0.108175
 936, 98.0004, 0.965001, 5.19441e-08, 4.88942e-33, 0.108008
 948, 99.0004, 0.965, 1.965e-08, 6.52323e-33, 0.107935
 960, 100, 0.965, 6.74893e-09, 8.68953e-33, 0.107906
 972, 101, 0.965, 2.08746e-09, 1.15575e-32, 0.107895
 984, 102, 0.965, 5.76366e-10, 1.53487e-32, 0.107892
 996, 103, 0.965, 1.40723e-10, 2.03528e-32, 0.107891
 1008, 104, 0.965, 3.00736e-11, 2.6948e-32, 0.10789
 1020, 105, 0.965, 5.56399e-12, 3.56275e-32, 0.10789
 1032, 106, 0.965, 8.80702e-13, 4.70331e-32, 0.10789
 1044, 107, 0.965, 1.17755e-13, 6.19994e-32, 0.10789
 1056, 108, 0.965, 1.31184e-14, 8.16096e-32, 0.10789
 1068, 109, 0.965, 1.19987e-15, 1.07268e-31, 0.10789
 1080, 110, 0.965, 8.86853e-17, 1.40793e-31, 0.10789
 1092, 111, 0.965, 5.20756e-18, 1.84534e-31, 0.10789
 1104, 112, 0.965, 2.38524e-19, 2.41524e-31, 0.10789
 1116, 113, 0.965, 8.35617e-21, 3.15674e-31, 0.10789
 1128, 114, 0.965, 2.19227e-22, 4.1202e-31, 0.10789
 1140, 115, 0.965, 4.21071e-24, 5.37033e-31, 0.10789
 1152, 116, 0.965, 5.77881e-26, 6.99024e-31, 0.10789
 1164, 117, 0.965, 5.52112e-28, 9.08649e-31, 0.10789
 1176, 118, 0.965, 3.57101e-30, 1.17955e-30, 0.10789
 1188, 119, 0.965, 1.52128e-32, 1.52919e-30, 0.10789
 1200, 120, 0.965, 9.05246e-35, 1.97985e-30, 0.10789
 1212, 121, 0.965, 6.40672e-35, 2.55996e-30, 0.10789
 1224, 122, 0.965, 8.26437e-35, 3.30574e-30, 0.10789
 1236, 123, 0.965, 1.06582e-34, 4.26329e-30, 0.10789
 1248, 124, 0.965, 1.37279e-34, 5.49116e-30, 0.10789
 1260, 125, 0.965, 1.76592e-34, 7.06369e-30, 0.10789
 1272, 126, 0.965, 2.26877e-34, 9.07509e-30, 0.10789
 1284, 127, 0.965, 2.91116e-34, 1.16446e-29, 0.10789
 1296, 128, 0.965, 3.7308e-34, 1.49232e-29, 0.10789
 1308, 129, 0.965, 4.77531e-34, 1.91012e-29, 0.10789
 1320, 130, 0.965, 6.10477e-34, 2.44191e-29, 0.10789
 1332, 131, 0.965, 7.79487e-34, 3.11795e-29, 0.10789
 1344, 132, 0.965, 9.94089e-34, 3.97636e-29, 0.10789
 1356, 133, 0.965, 1.26625e-33, 5.06502e-29, 0.10789
 1368, 134, 0.965, 1.61102e-33, 6.44408e-29, 0.10789
 1380, 135, 0.965, 2.04724e-33, 8.18895e-29, 0.10789
 1392, 136, 0.965, 2.59852e-33, 1.03941e-28, 0.10789
 1404, 137, 0.965, 3.29443e-33, 1.31777e-28, 0.10789
 1416, 138, 0.965, 4.17189e-33, 1.66875e-28, 0.10789
 1428, 139, 0.965, 5.277e-33, 2.1108e-28, 0.10789
 1440, 140, 0.965, 6.66727e-33, 2.66691e-28, 0.10789
 1452, 141, 0.965, 8.4143e-33, 3.36572e-28, 0.10789
 1464, 142, 0.965, 1.06072e-32, 4.24288e-28, 0.10789
 1476, 143, 0.965, 1.33568e-32, 5.3427e-28, 0.10789
 1488, 144, 0.965, 1.68005e-32, 6.72018e-28, 0.10789
 1500, 145, 0.965, 2.11088e-32, 8.44354e-28, 0.10789
 1512, 146, 0.965, 2.64932e-32, 1.05973e-27, 0.10789
 1524, 147, 0.965, 3.32151e-32, 1.3286e-27, 0.10789
 1536, 148, 0.965, 4.15977e-32, 1.66391e-27, 0.10789
 1548, 149, 0.965, 5.20405e-32, 2.08162e-27, 0.10789
 1560, 150, 0.965, 6.50358e-32, 2.60143e-27, 0.10789
 1572, 151, 0.965, 8.1191e-32, 3.24764e-27, 0.10789
 1584, 152, 0.965, 1.01253e-31, 4.05013e-27, 0.10789
 1596, 153, 0.965, 1.26142e-31, 5.0457e-27, 0.10789
 1608, 154, 0.965, 1.56988e-31, 6.27951e-27, 0.10789
 1620, 155, 0.965, 1.95176e-31, 7.80705e-27, 0.10789
 1632, 156, 0.965, 2.42408e-31, 9.69633e-27, 0.10789
 1644, 157, 0.965, 3.00767e-31, 1.20307e-26, 0.10789
 1656, 158, 0.965, 3.72802e-31, 1.49121e-26, 0.10789
 1668, 159, 0.965, 4.61631e-31, 1.84652e-26, 0.10789
 1680, 160, 0.965, 5.71061e-31, 2.28424e-26, 0.10789
 1692, 161, 0.965, 7.0574e-31, 2.82296e-26, 0.10789
 1704, 162, 0.965, 8.71334e-31, 3.48534e-26, 0.10789
 1716, 163, 0.965, 1.07474e-30, 4.29897e-26, 0.10789
 1728, 164, 0.965, 1.32436e-30, 5.29746e-26, 0.10789
 1740, 165, 0.965, 1.63041e-30, 6.52164e-26, 0.10789
 1752, 166, 0.965, 2.00528e-30, 8.02111e-26, 0.10789
 1764, 167, 0.965, 2.46402e-30, 9.85607e-26, 0.10789
 1776, 168, 0.965, 3.02488e-30, 1.20995e-25, 0.10789
 1788, 169, 0.965, 3.70995e-30, 1.48398e-25, 0.10789
 1800, 170, 0.965, 4.546e-30, 1.8184e-25, 0.10789
 1812, 171, 0.965, 5.56535e-30, 2.22614e-25, 0.10789
 1824, 172, 0.965, 6.80709e-30, 2.72284e-25, 0.10789
 1836, 173, 0.965, 8.31836e-30, 3.32735e-25, 0.10789
 1848, 174, 0.965, 1.01561e-29, 4.06242e-25, 0.10789
 1860, 175, 0.965, 1.23887e-29, 4.95547e-25, 0.10789
 1872, 176, 0.965, 1.50988e-29, 6.0395e-25, 0.10789
 1884, 177, 0.965, 1.83855e-29, 7.3542e-25, 0.10789
 1896, 178, 0.965, 2.23682e-29, 8.94726e-25, 0.10789
 1908, 179, 0.965, 2.719e-29, 1.0876e-24, 0.10789
 1920, 180, 0.965, 3.30227e-29, 1.32091e-24, 0.10789
 1932, 181, 0.965, 4.00724e-29, 1.60289e-24, 0.10789
 1944, 182, 0.965, 4.85857e-29, 1.94343e-24, 0.10789
 1956, 183, 0.965, 5.88579e-29, 2.35431e-24, 0.10789
 1968, 184, 0.965, 7.12421e-29, 2.84968e-24, 0.10789
 1980, 185, 0.965, 8.61601e-29, 3.44641e-24, 0.10789
 1992, 186, 0.965, 1.04116e-28, 4.16463e-24, 0.10789
 2004, 187, 0.965, 1.2571e-28, 5.0284e-24, 0.10789
 2016, 188, 0.965, 1.51659e-28, 6.06635e-24, 0.10789
 2028, 189, 0.965, 1.82815e-28, 7.31262e-24, 0.10789
 2040, 190, 0.965, 2.20195e-28, 8.8078e-24, 0.10789
 2052, 191, 0.965, 2.65005e-28, 1.06002e-23, 0.10789
 2064, 192, 0.965, 3.1868e-28, 1.27472e-23, 0.10789
 2076, 193, 0.965, 3.82924e-28, 1.53169e-23, 0.10789
 2088, 194, 0.965, 4.59757e-28, 1.83903e-23, 0.10789
 2100, 195, 0.965, 5.51575e-28, 2.2063e-23, 0.10789
 2112, 196, 0.965, 6.61216e-28, 2.64487e-23, 0.10789
 2124, 197, 0.965, 7.92041e-28, 3.16817e-23, 0.10789
 2136, 198, 0.965, 9.48024e-28, 3.7921e-23, 0.10789
 2148, 199, 0.965, 1.13386e-27, 4.53545e-23, 0.10789
 2160, 200, 0.965, 1.3551e-27, 5.42041e-23, 0.10789
 2172, 201, 0.965, 1.6183e-27, 6.47319e-23, 0.10789
 2184, 202, 0.965, 1.93116e-27, 7.72466e-23, 0.10789
 2196, 203, 0.965, 2.30281e-27, 9.21124e-23, 0.10789
 2208, 204, 0.965, 2.74395e-27, 1.09758e-22, 0.10789
 2220, 205, 0.965, 3.26721e-27, 1.30688e-22, 0.10789
 2232, 206, 0.965, 3.88741e-27, 1.55496e-22, 0.10789
 2244, 207, 0.965, 4.62199e-27, 1.8488e-22, 0.10789
 2256, 208, 0.965, 5.49144e-27, 2.19657e-22, 0.10789
 2268, 209, 0.965, 6.51977e-27, 2.60791e-22, 0.10789
 2280, 210, 0.965, 7.73517e-27, 3.09407e-22, 0.10789
 2292, 211, 0.965, 9.17066e-27, 3.66826e-22, 0.10789
 2304, 212, 0.965, 1.08649e-26, 4.34597e-22, 0.10789
 2316, 213, 0.965, 1.28632e-26, 5.14529e-22, 0.10789
 2328, 214, 0.965, 1.52185e-26, 6.08741e-22, 0.10789
 2340, 215, 0.965, 1.79927e-26, 7.19707e-22, 0.10789
 2352, 216, 0.965, 2.12579e-26, 8.50318e-22, 0.10789
 2364, 217, 0.965, 2.50987e-26, 1.00395e-21, 0.10789
 2376, 218, 0.965, 2.96134e-26, 1.18453e-21, 0.10789
 2388, 219, 0.965, 3.49166e-26, 1.39667e-21, 0.10789
 2400, 220, 0.965, 4.11421e-26, 1.64569e-21, 0.10789
 2412, 221, 0.965, 4.84454e-26, 1.93782e-21, 0.10789
 2424, 222, 0.965, 5.70075e-26, 2.2803e-21, 0.10789
 2436, 223, 0.965, 6.70389e-26, 2.68155e-21, 0.10789
 2448, 224, 0.965, 7.8784e-26, 3.15136e-21, 0.10789
 2460, 225, 0.965, 9.25268e-26, 3.70107e-21, 0.10789
 2472, 226, 0.965, 1.08597e-25, 4.34388e-21, 0.10789
 2484, 227, 0.965, 1.27377e-25, 5.09506e-21, 0.10789
 2496, 228, 0.965, 1.49309e-25, 5.97234e-21, 0.10789
 2508, 229, 0.965, 1.74906e-25, 6.99625e-21, 0.10789
 2520, 230, 0.965, 2.04764e-25, 8.19055e-21, 0.10789
 2532, 231, 0.965, 2.39568e-25, 9.58272e-21, 0.10789
 2544, 232, 0.965, 2.80114e-25, 1.12046e-20, 0.10789
 2556, 233, 0.965, 3.2732e-25, 1.30928e-20, 0.10789
 2568, 234, 0.965, 3.82246e-25, 1.52899e-20, 0.10789
 2580, 235, 0.965, 4.46117e-25, 1.78447e-20, 0.10789
 2592, 236, 0.965, 5.20345e-25, 2.08138e-20, 0.10789
 2604, 237, 0.965, 6.06557e-25, 2.42623e-20, 0.10789
 2616, 238, 0.965, 7.06628e-25, 2.82651e-20, 0.10789
 2628, 239, 0.965, 8.22719e-25, 3.29088e-20, 0.10789
 2640, 240, 0.965, 9.57315e-25, 3.82926e-20, 0.10789
 2652, 241, 0.965, 1.11327e-24, 4.45309e-20, 0.10789
 2664, 242, 0.965, 1.29388e-24, 5.17553e-20, 0.10789
 2676, 243, 0.965, 1.50291e-24, 6.01166e-20, 0.10789
 2688, 244, 0.965, 1.74471e-24, 6.97883e-20, 0.10789
 2700, 245, 0.965, 2.02423e-24, 8.09693e-20, 0.10789
 2712, 246, 0.965, 2.3472e-24, 9.3888e-20, 0.10789
 2724, 247, 0.965, 2.72015e-24, 1.08806e-19, 0.10789
 2736, 248, 0.965, 3.15057e-24, 1.26023e-19, 0.10789
 2748, 249, 0.965, 3.64704e-24, 1.45882e-19, 0.10789
 2760, 250, 0.965, 4.21939e-24, 1.68776e-19, 0.10789
 2772, 251, 0.965, 4.87885e-24, 1.95154e-19, 0.10789
 2784, 252, 0.965, 5.63826e-24, 2.2553e-19, 0.10789
 2796, 253, 0.965, 6.51229e-24, 2.60492e-19, 0.10789
 2808, 254, 0.965, 7.5177e-24, 3.00708e-19, 0.10789
 2820, 255, 0.965, 8.67361e-24, 3.46944e-19, 0.10789
 2832, 256, 0.965, 1.00018e-23, 4.00074e-19, 0.10789
 2844, 257, 0.965, 1.15273e-23, 4.61091e-19, 0.10789
 2856, 258, 0.965, 1.32783e-23, 5.31131e-19, 0.10789
 2868, 259, 0.965, 1.52871e-23, 6.11484e-19, 0.10789
 2880, 260, 0.965, 1.75906e-23, 7.03623e-19, 0.10789
 2892, 261, 0.965, 2.02305e-23, 8.09219e-19, 0.10789
 2904, 262, 0.965, 2.32544e-23, 9.30176e-19, 0.10789
 2916, 263, 0.965, 2.67164e-23, 1.06866e-18, 0.10789
 2928, 264, 0.965, 3.0678e-23, 1.22712e-18, 0.10789
 2940, 265, 0.965, 3.5209e-23, 1.40836e-18, 0.10789
 2952, 266, 0.965, 4.03885e-23, 1.61554e-18, 0.10789
 2964, 267, 0.965, 4.63064e-23, 1.85225e-18, 0.10789
 2976, 268, 0.965, 5.30646e-23, 2.12258e-18, 0.10789
 2988, 269, 0.965, 6.07785e-23, 2.43114e-18, 0.10789
 3000, 270, 0.965, 6.95791e-23, 2.78316e-18, 0.10789
 3012, 271, 0.965, 7.96143e-23, 3.18457e-18, 0.10789
 3024, 272, 0.965, 9.10519e-23, 3.64208e-18, 0.10789
 3036, 273, 0.965, 1.04082e-22, 4.16326e-18, 0.10789
 3048, 274, 0.965, 1.18918e-22, 4.7567e-18, 0.10789
 3060, 275, 0.965, 1.35802e-22, 5.43209e-18, 0.10789
 3072, 276, 0.965, 1.55009e-22, 6.20037e-18, 0.10789
 3084, 277, 0.965, 1.76848e-22, 7.07392e-18, 0.10789
 3096, 278, 0.965, 2.01667e-22, 8.06667e-18, 0.10789
 3108, 279, 0.965, 2.29859e-22, 9.19438e-18, 0.10789
 3120, 280, 0.965, 2.61869e-22, 1.04748e-17, 0.10789
 3132, 281, 0.965, 2.98197e-22, 1.19279e-17, 0.10789
 3144, 282, 0.965, 3.39404e-22, 1.35762e-17, 0.10789
 3156, 283, 0.965, 3.86127e-22, 1.54451e-17, 0.10789
 3168, 284, 0.965, 4.39078e-22, 1.75631e-17, 0.10789
 3180, 285, 0.965, 4.9906e-22, 1.99624e-17, 0.10789
 3192, 286, 0.965, 5.66977e-22, 2.26791e-17, 0.10789
 3204, 287, 0.965, 6.43844e-22, 2.57538e-17, 0.10789
 3216, 288, 0.965, 7.308e-22, 2.9232e-17, 0.10789
 3228, 289, 0.965, 8.29127e-22, 3.31651e-17, 0.10789
 3240, 290, 0.965, 9.40261e-22, 3.76104e-17, 0.10789
 3252, 291, 0.965, 1.06582e-21, 4.26326e-17, 0.10789
 3264, 292, 0.965, 1.2076e-21, 4.8304e-17, 0.10789
 3276, 293, 0.965, 1.36764e-21, 5.47058e-17, 0.10789
 3288, 294, 0.965, 1.54822e-21, 6.19287e-17, 0.10789
 3300, 295, 0.965, 1.75187e-21, 7.00748e-17, 0.10789
 3312, 296, 0.965, 1.98145e-21, 7.92579e-17, 0.10789
 3324, 297, 0.965, 2.24014e-21, 8.96057e-17, 0.10789
 3336, 298, 0.965, 2.53153e-21, 1.01261e-16, 0.10789
 3348, 299, 0.965, 2.85959e-21, 1.14384e-16, 0.10789
 3360, 300, 0.965, 3.22879e-21, 1.29152e-16, 0.10789
 3372, 301, 0.965, 3.64412e-21, 1.45765e-16, 0.10789
 3384, 302, 0.965, 4.11114e-21, 1.64446e-16, 0.10789
 3396, 303, 0.965, 4.63607e-21, 1.85443e-16, 0.10789
 3408, 304, 0.965, 5.22586e-21, 2.09034e-16, 0.10789
 3420, 305, 0.965, 5.88823e-21, 2.35529e-16, 0.10789
 3432, 306, 0.965, 6.63183e-21, 2.65273e-16, 0.10789
 3444, 307, 0.965, 7.46627e-21, 2.98651e-16, 0.10789
 3456, 308, 0.965, 8.40227e-21, 3.36091e-16, 0.10789
 3468, 309, 0.965, 9.45178e-21, 3.78071e-16, 0.10789
 3480, 310, 0.965, 1.06281e-20, 4.25124e-16, 0.10789
 3492, 311, 0.965, 1.1946e-20, 4.7784e-16, 0.10789
 3504, 312, 0.965, 1.3422e-20, 5.36879e-16, 0.10789
 3516, 313, 0.965, 1.50743e-20, 6.02972e-16, 0.10789
 3528, 314, 0.965, 1.69234e-20, 6.76934e-16, 0.10789
 3540, 315, 0.965, 1.89918e-20, 7.5967e-16, 0.10789
 3552, 316, 0.965, 2.13046e-20, 8.52184e-16, 0.10789
 3564, 317, 0.965, 2.38898e-20, 9.55593e-16, 0.10789
 3576, 318, 0.965, 2.67783e-20, 1.07113e-15, 0.10789
 3588, 319, 0.965, 3.00046e-20, 1.20018e-15, 0.10789
 3600, 320, 0.965, 3.36066e-20, 1.34426e-15, 0.10789
 3612, 321, 0.965, 3.76267e-20, 1.50507e-15, 0.10789
 3624, 322, 0.965, 4.21116e-20, 1.68447e-15, 0.10789
 3636, 323, 0.965, 4.71134e-20, 1.88454e-15, 0.10789
 3648, 324, 0.965, 5.26894e-20, 2.10758e-15, 0.10789
 3660, 325, 0.965, 5.89034e-20, 2.35613e-15, 0.10789
 3672, 326, 0.965, 6.58256e-20, 2.63303e-15, 0.10789
 3684, 327, 0.965, 7.35342e-20, 2.94137e-15, 0.10789
 3696, 328, 0.965, 8.21152e-20, 3.28461e-15, 0.10789
 3708, 329, 0.965, 9.16639e-20, 3.66656e-15, 0.10789
 3720, 330, 0.965, 1.02286e-19, 4.09143e-15, 0.10789
 3732, 331, 0.965, 1.14097e-19, 4.56388e-15, 0.10789
 3744, 332, 0.965, 1.27226e-19, 5.08904e-15, 0.10789
 3756, 333, 0.965, 1.41815e-19, 5.6726e-15, 0.10789
 3768, 334, 0.965, 1.5802e-19, 6.32081e-15, 0.10789
 3780, 335, 0.965, 1.76015e-19, 7.04059e-15, 0.10789
 3792, 336, 0.965, 1.95989e-19, 7.83955e-15, 0.10789
 3804, 337, 0.965, 2.18153e-19, 8.72611e-15, 0.10789
 3816, 338, 0.965, 2.42738e-19, 9.70952e-15, 0.10789
 3828, 339, 0.965, 2.7e-19, 1.08e-14, 0.10789
 3840, 340, 0.965, 3.00219e-19, 1.20088e-14, 0.10789
 3852, 341, 0.965, 3.33705e-19, 1.33482e-14, 0.10789
 3864, 342, 0.965, 3.70799e-19, 1.4832e-14, 0.10789
 3876, 343, 0.965, 4.11875e-19, 1.6475e-14, 0.10789
 3888, 344, 0.965, 4.57345e-19, 1.82938e-14, 0.10789
 3900, 345, 0.965, 5.07664e-19, 2.03065e-14, 0.10789
 3912, 346, 0.965, 5.63328e-19, 2.25331e-14, 0.10789
 3924, 347, 0.965, 6.24886e-19, 2.49955e-14, 0.10789
 3936, 348, 0.965, 6.9294e-19, 2.77176e-14, 0.10789
 3948, 349, 0.965, 7.6815e-19, 3.0726e-14, 0.10789
 3960, 350, 0.965, 8.51242e-19, 3.40497e-14, 0.10789
 3972, 351, 0.965, 9.43011e-19, 3.77204e-14, 0.10789
 3984, 352, 0.965, 1.04433e-18, 4.17732e-14, 0.10789
 3996, 353, 0.965, 1.15616e-18, 4.62464e-14, 0.10789
 4008, 354, 0.965, 1.27955e-18, 5.1182e-14, 0.10789
 4020, 355, 0.965, 1.41565e-18, 5.6626e-14, 0.10789
 4032, 356, 0.965, 1.56572e-18, 6.2629e-14, 0.10789
 4044, 357, 0.965, 1.73115e-18, 6.92462e-14, 0.10789
 4056, 358, 0.965, 1.91345e-18, 7.65382e-14, 0.10789
 4068, 359, 0.965, 2.11428e-18, 8.45712e-14, 0.10789
 4080, 360, 0.965, 2.33545e-18, 9.34179e-14, 0.10789
 4092, 361, 0.965, 2.57894e-18, 1.03158e-13, 0.10789
 4104, 362, 0.965, 2.84694e-18, 1.13877e-13, 0.10789
 4116, 363, 0.965, 3.1418e-18, 1.25672e-13, 0.10789
 4128, 364, 0.965, 3.46613e-18, 1.38645e-13, 0.10789
 4140, 365, 0.965, 3.82277e-18, 1.52911e-13, 0.10789
 4152, 366, 0.965, 4.2148e-18, 1.68592e-13, 0.10789
 4164, 367, 0.965, 4.64563e-18, 1.85825e-13, 0.10789
 4176, 368, 0.965, 5.11894e-18, 2.04758e-13, 0.10789
 4188, 369, 0.965, 5.63876e-18, 2.25551e-13, 0.10789
 4200, 370, 0.965, 6.20951e-18, 2.4838e-13, 0.10789
 4212, 371, 0.965, 6.83598e-18, 2.73439e-13, 0.10789
 4224, 372, 0.965, 7.52342e-18, 3.00937e-13, 0.10789
 4236, 373, 0.965, 8.27752e-18, 3.31101e-13, 0.10789
 4248, 374, 0.965, 9.10453e-18, 3.64181e-13, 0.10789
 4260, 375, 0.965, 1.00112e-17, 4.00449e-13, 0.10789
 4272, 376, 0.965, 1.1005e-17, 4.40199e-13, 0.10789
 4284, 377, 0.965, 1.20939e-17, 4.83755e-13, 0.10789
 4296, 378, 0.965, 1.32866e-17, 5.31466e-13, 0.10789
 4308, 379, 0.965, 1.45929e-17, 5.83714e-13, 0.10789
 4320, 380, 0.965, 1.60229e-17, 6.40915e-13, 0.10789
 4332, 381, 0.965, 1.7588e-17, 7.0352e-13, 0.10789
 4344, 382, 0.965, 1.93005e-17, 7.7202e-13, 0.10789
 4356, 383, 0.965, 2.11738e-17, 8.46951e-13, 0.10789
 4368, 384, 0.965, 2.32223e-17, 9.28892e-13, 0.10789
 4380, 385, 0.965, 2.54619e-17, 1.01848e-12, 0.10789
 4392, 386, 0.965, 2.79096e-17, 1.11639e-12, 0.10789
 4404, 387, 0.965, 3.05842e-17, 1.22337e-12, 0.10789
 4416, 388, 0.965, 3.35058e-17, 1.34023e-12, 0.10789
 4428, 389, 0.965, 3.66964e-17, 1.46785e-12, 0.10789
 4440, 390, 0.965, 4.01797e-17, 1.60719e-12, 0.10789
 4452, 391, 0.965, 4.39818e-17, 1.75927e-12, 0.10789
 4464, 392, 0.965, 4.81304e-17, 1.92522e-12, 0.10789
 4476, 393, 0.965, 5.26562e-17, 2.10625e-12, 0.10789
 4488, 394, 0.965, 5.7592e-17, 2.30368e-12, 0.10789
 4500, 395, 0.965, 6.29736e-17, 2.51895e-12, 0.10789
 4512, 396, 0.965, 6.88397e-17, 2.75359e-12, 0.10789
 4524, 397, 0.965, 7.52323e-17, 3.00929e-12, 0.10789
 4536, 398, 0.965, 8.21966e-17, 3.28787e-12, 0.10789
 4548, 399, 0.965, 8.97821e-17, 3.59128e-12, 0.10789
 4560, 400, 0.965, 9.80418e-17, 3.92167e-12, 0.10789
 4572, 401, 0.965, 1.07033e-16, 4.28134e-12, 0.10789
 4584, 402, 0.965, 1.16819e-16, 4.67278e-12, 0.10789
 4596, 403, 0.965, 1.27467e-16, 5.09868e-12, 0.10789
 4608, 404, 0.965, 1.39049e-16, 5.56198e-12, 0.10789
 4620, 405, 0.965, 1.51645e-16, 6.06581e-12, 0.10789
 4632, 406, 0.965, 1.6534e-16, 6.6136e-12, 0.10789
 4644, 407, 0.965, 1.80225e-16, 7.20902e-12, 0.10789
 4656, 408, 0.965, 1.96401e-16, 7.85606e-12, 0.10789
 4668, 409, 0.965, 2.13975e-16, 8.55902e-12, 0.10789
 4680, 410, 0.965, 2.33063e-16, 9.32253e-12, 0.10789
 4692, 411, 0.965, 2.53791e-16, 1.01516e-11, 0.10789
 4704, 412, 0.965, 2.76292e-16, 1.10517e-11, 0.10789
 4716, 413, 0.965, 3.00715e-16, 1.20286e-11, 0.10789
 4728, 414, 0.965, 3.27216e-16, 1.30886e-11, 0.10789
 4740, 415, 0.965, 3.55964e-16, 1.42386e-11, 0.10789
 4752, 416, 0.965, 3.87144e-16, 1.54858e-11, 0.10789
 4764, 417, 0.965, 4.20953e-16, 1.68381e-11, 0.10789
 4776, 418, 0.965, 4.57603e-16, 1.83041e-11, 0.10789
 4788, 419, 0.965, 4.97324e-16, 1.9893e-11, 0.10789
 4800, 420, 0.965, 5.40363e-16, 2.16145e-11, 0.10789
 4812, 421, 0.965, 5.86986e-16, 2.34795e-11, 0.10789
 4824, 422, 0.965, 6.37481e-16, 2.54992e-11, 0.10789
 4836, 423, 0.965, 6.92155e-16, 2.76862e-11, 0.10789
 4848, 424, 0.965, 7.5134e-16, 3.00536e-11, 0.10789
 4860, 425, 0.965, 8.15395e-16, 3.26158e-11, 0.10789
 4872, 426, 0.965, 8.84704e-16, 3.53881e-11, 0.10789
 4884, 427, 0.965, 9.5968e-16, 3.83872e-11, 0.10789
 4896, 428, 0.965, 1.04077e-15, 4.16308e-11, 0.10789
 4908, 429, 0.965, 1.12845e-15, 4.51379e-11, 0.10789
 4920, 430, 0.965, 1.22323e-15, 4.89293e-11, 0.10789
 4932, 431, 0.965, 1.32568e-15, 5.3027e-11, 0.10789
 4944, 432, 0.965, 1.43637e-15, 5.74548e-11, 0.10789
 4956, 433, 0.965, 1.55595e-15, 6.22382e-11, 0.10789
 4968, 434, 0.965, 1.68511e-15, 6.74045e-11, 0.10789
 4980, 435, 0.965, 1.82458e-15, 7.29833e-11, 0.10789
 4992, 436, 0.965, 1.97515e-15, 7.9006e-11, 0.10789
 5004, 437, 0.965, 2.13767e-15, 8.55067e-11, 0.10789
 5016, 438, 0.965, 2.31304e-15, 9.25217e-11, 0.10789
 5028, 439, 0.965, 2.50225e-15, 1.0009e-10, 0.10789
 5040, 440, 0.965, 2.70634e-15, 1.08254e-10, 0.10789
 5052, 441, 0.965, 2.92643e-15, 1.17057e-10, 0.10789
 5064, 442, 0.965, 3.16373e-15, 1.26549e-10, 0.10789
 5076, 443, 0.965, 3.41953e-15, 1.36781e-10, 0.10789
 5088, 444, 0.965, 3.6952e-15, 1.47808e-10, 0.10789
 5100, 445, 0.965, 3.99224e-15, 1.5969e-10, 0.10789
 5112, 446, 0.965, 4.31223e-15, 1.72489e-10, 0.10789
 5124, 447, 0.965, 4.65687e-15, 1.86275e-10, 0.10789
 5136, 448, 0.965, 5.02799e-15, 2.01119e-10, 0.10789
 5148, 449, 0.965, 5.42752e-15, 2.17101e-10, 0.10789
 5160, 450, 0.965, 5.85756e-15, 2.34303e-10, 0.10789
 5172, 451, 0.965, 6.32035e-15, 2.52814e-10, 0.10789
 5184, 452, 0.965, 6.81827e-15, 2.72731e-10, 0.10789
 5196, 453, 0.965, 7.35388e-15, 2.94155e-10, 0.10789
 5208, 454, 0.965, 7.92991e-15, 3.17197e-10, 0.10789
 5220, 455, 0.965, 8.5493e-15, 3.41972e-10, 0.10789
 5232, 456, 0.965, 9.21516e-15, 3.68606e-10, 0.10789
 5244, 457, 0.965, 9.93084e-15, 3.97234e-10, 0.10789
 5256, 458, 0.965, 1.06999e-14, 4.27997e-10, 0.10789
 5268, 459, 0.965, 1.15262e-14, 4.61048e-10, 0.10789
 5280, 460, 0.965, 1.24138e-14, 4.96551e-10, 0.10789
 5292, 461, 0.965, 1.3367e-14, 5.3468e-10, 0.10789
 5304, 462, 0.965, 1.43905e-14, 5.75621e-10, 0.10789
 5316, 463, 0.965, 1.54893e-14, 6.19572e-10, 0.10789
 5328, 464, 0.965, 1.66687e-14, 6.66747e-10, 0.10789
 5340, 465, 0.965, 1.79343e-14, 7.1737e-10, 0.10789
 5352, 466, 0.965, 1.92921e-14, 7.71685e-10, 0.10789
 5364, 467, 0.965, 2.07487e-14, 8.29948e-10, 0.10789
 5376, 468, 0.965, 2.23109e-14, 8.92434e-10, 0.10789
 5388, 469, 0.965, 2.39859e-14, 9.59437e-10, 0.10789
 5400, 470, 0.965, 2.57818e-14, 1.03127e-09, 0.10789
 5412, 471, 0.965, 2.77067e-14, 1.10827e-09, 0.10789
 5424, 472, 0.965, 2.97695e-14, 1.19078e-09, 0.10789
 5436, 473, 0.965, 3.19798e-14, 1.27919e-09, 0.10789
 5448, 474, 0.965, 3.43476e-14, 1.37391e-09, 0.10789
 5460, 475, 0.965, 3.68837e-14, 1.47535e-09, 0.10789
 5472, 476, 0.965, 3.95995e-14, 1.58398e-09, 0.10789
 5484, 477, 0.965, 4.25073e-14, 1.70029e-09, 0.10789
 5496, 478, 0.965, 4.56199e-14, 1.8248e-09, 0.10789
 5508, 479, 0.965, 4.89513e-14, 1.95805e-09, 0.10789
 5520, 480, 0.965, 5.25161e-14, 2.10064e-09, 0.10789
 5532, 481, 0.965, 5.633e-14, 2.2532e-09, 0.10789
 5544, 482, 0.965, 6.04096e-14, 2.41639e-09, 0.10789
 5556, 483, 0.965, 6.47728e-14, 2.59091e-09, 0.10789
 5568, 484, 0.965, 6.94383e-14, 2.77753e-09, 0.10789
 5580, 485, 0.965, 7.44261e-14, 2.97705e-09, 0.10789
 5592, 486, 0.965, 7.97577e-14, 3.19031e-09, 0.10789
 5604, 487, 0.965, 8.54557e-14, 3.41823e-09, 0.10789
 5616, 488, 0.965, 9.15441e-14, 3.66177e-09, 0.10789
 5628, 489, 0.965, 9.80486e-14, 3.92195e-09, 0.10789
 5640, 490, 0.965, 1.04996e-13, 4.19986e-09, 0.10789
 5652, 491, 0.965, 1.12416e-13, 4.49665e-09, 0.10789
 5664, 492, 0.965, 1.20339e-13, 4.81357e-09, 0.10789
 5676, 493, 0.965, 1.28798e-13, 5.1519e-09, 0.10789
 5688, 494, 0.965, 1.37826e-13, 5.51304e-09, 0.10789
 5700, 495, 0.965, 1.47461e-13, 5.89845e-09, 0.10789
 5712, 496, 0.965, 1.57742e-13, 6.3097e-09, 0.10789
 5724, 497, 0.965, 1.68711e-13, 6.74843e-09, 0.10789
 5736, 498, 0.965, 1.8041e-13, 7.21642e-09, 0.10789
 5748, 499, 0.965, 1.92888e-13, 7.71552e-09, 0.10789
 5760, 500, 0.965, 2.06193e-13, 8.24771e-09, 0.10789
 5772, 501, 0.965, 2.20377e-13, 8.81509e-09, 0.10789
 5784, 502, 0.965, 2.35497e-13, 9.41989e-09, 0.10789
 5796, 503, 0.965, 2.51611e-13, 1.00645e-08, 0.10789
 5808, 504, 0.965, 2.68782e-13, 1.07513e-08, 0.10789
 5820, 505, 0.965, 2.87077e-13, 1.14831e-08, 0.10789
 5832, 506, 0.965, 3.06564e-13, 1.22626e-08, 0.10789
 5844, 507, 0.965, 3.27319e-13, 1.30928e-08, 0.10789
 5856, 508, 0.965, 3.49421e-13, 1.39769e-08, 0.10789
 5868, 509, 0.965, 3.72953e-13, 1.49181e-08, 0.10789
 5880, 510, 0.965, 3.98004e-13, 1.59202e-08, 0.10789
 5892, 511, 0.965, 4.24666e-13, 1.69867e-08, 0.10789
 5904, 512, 0.965, 4.5304e-13, 1.81216e-08, 0.10789
 5916, 513, 0.965, 4.83231e-13, 1.93292e-08, 0.10789
 5928, 514, 0.965, 5.15348e-13, 2.06139e-08, 0.10789
 5940, 515, 0.965, 5.49511e-13, 2.19804e-08, 0.10789
 5952, 516, 0.965, 5.85843e-13, 2.34337e-08, 0.10789
 5964, 517, 0.965, 6.24475e-13, 2.4979e-08, 0.10789
 5976, 518, 0.965, 6.65548e-13, 2.66219e-08, 0.10789
 5988, 519, 0.965, 7.09209e-13, 2.83684e-08, 0.10789
 6000, 520, 0.965, 7.55612e-13, 3.02245e-08, 0.10789
 6012, 521, 0.965, 8.04923e-13, 3.21969e-08, 0.10789
 6024, 522, 0.965, 8.57316e-13, 3.42926e-08, 0.10789
 6036, 523, 0.965, 9.12974e-13, 3.6519e-08, 0.10789
 6048, 524, 0.965, 9.72093e-13, 3.88837e-08, 0.10789
 6060, 525, 0.965, 1.03488e-12, 4.13951e-08, 0.10789
 6072, 526, 0.965, 1.10154e-12, 4.40617e-08, 0.10789
 6084, 527, 0.965, 1.17232e-12, 4.68928e-08, 0.10789
 6096, 528, 0.965, 1.24745e-12, 4.98981e-08, 0.10789
 6108, 529, 0.965, 1.32719e-12, 5.30878e-08, 0.10789
 6120, 530, 0.965, 1.41181e-12, 5.64726e-08, 0.10789
 6132, 531, 0.965, 1.5016e-12, 6.0064e-08, 0.10789
 6144, 532, 0.965, 1.59685e-12, 6.3874e-08, 0.10789
 6156, 533, 0.965, 1.69788e-12, 6.79154e-08, 0.10789
 6168, 534, 0.965, 1.80504e-12, 7.22014e-08, 0.10789
 6180, 535, 0.965, 1.91866e-12, 7.67463e-08, 0.10789
 6192, 536, 0.965, 2.03913e-12, 8.1565e-08, 0.10789
 6204, 537, 0.965, 2.16683e-12, 8.66733e-08, 0.10789
 6216, 538, 0.965, 2.30219e-12, 9.20876e-08, 0.10789
 6228, 539, 0.965, 2.44564e-12, 9.78256e-08, 0.10789
 6240, 540, 0.965, 2.59764e-12, 1.03906e-07, 0.10789
 6252, 541, 0.965, 2.75868e-12, 1.10347e-07, 0.10789
 6264, 542, 0.965, 2.92927e-12, 1.17171e-07, 0.10789
 6276, 543, 0.965, 3.10996e-12, 1.24398e-07, 0.10789
 6288, 544, 0.965, 3.3013e-12, 1.32052e-07, 0.10789
 6300, 545, 0.965, 3.50391e-12, 1.40156e-07, 0.10789
 6312, 546, 0.965, 3.71841e-12, 1.48736e-07, 0.10789
 6324, 547, 0.965, 3.94547e-12, 1.57819e-07, 0.10789
 6336, 548, 0.965, 4.18578e-12, 1.67431e-07, 0.10789
 6348, 549, 0.965, 4.4401e-12, 1.77604e-07, 0.10789
 6360, 550, 0.965, 4.7092e-12, 1.88368e-07, 0.10789
 6372, 551, 0.965, 4.99389e-12, 1.99756e-07, 0.10789
 6384, 552, 0.965, 5.29504e-12, 2.11801e-07, 0.10789
 6396, 553, 0.965, 5.61355e-12, 2.24542e-07, 0.10789
 6408, 554, 0.965, 5.95038e-12, 2.38015e-07, 0.10789
 6420, 555, 0.965, 6.30654e-12, 2.52261e-07, 0.10789
 6432, 556, 0.965, 6.68307e-12, 2.67323e-07, 0.10789
 6444, 557, 0.965, 7.0811e-12, 2.83244e-07, 0.10789
 6456, 558, 0.965, 7.50179e-12, 3.00072e-07, 0.10789
 6468, 559, 0.965, 7.94637e-12, 3.17855e-07, 0.10789
 6480, 560, 0.965, 8.41613e-12, 3.36645e-07, 0.10789
 6492, 561, 0.965, 8.91244e-12, 3.56497e-07, 0.10789
 6504, 562, 0.965, 9.43672e-12, 3.77469e-07, 0.10789
 6516, 563, 0.965, 9.99047e-12, 3.99619e-07, 0.10789
 6528, 564, 0.965, 1.05753e-11, 4.23011e-07, 0.10789
 6540, 565, 0.965, 1.11928e-11, 4.47712e-07, 0.10789
 6552, 566, 0.965, 1.18448e-11, 4.73791e-07, 0.10789
 6564, 567, 0.965, 1.2533e-11, 5.01322e-07, 0.10789
 6576, 568, 0.965, 1.32595e-11, 5.30381e-07, 0.10789
 6588, 569, 0.965, 1.40262e-11, 5.61049e-07, 0.10789
 6600, 570, 0.965, 1.48353e-11, 5.93412e-07, 0.10789
 6612, 571, 0.965, 1.5689e-11, 6.27558e-07, 0.10789
 6624, 572, 0.965, 1.65895e-11, 6.63581e-07, 0.10789
 6636, 573, 0.965, 1.75395e-11, 7.0158e-07, 0.10789
 6648, 574, 0.965, 1.85414e-11, 7.41656e-07, 0.10789
 6660, 575, 0.965, 1.9598e-11, 7.8392e-07, 0.10789
 6672, 576, 0.965, 2.07121e-11, 8.28483e-07, 0.10789
 6684, 577, 0.965, 2.18866e-11, 8.75466e-07, 0.10789
 6696, 578, 0.965, 2.31248e-11, 9.24993e-07, 0.10789
 6708, 579, 0.965, 2.44299e-11, 9.77196e-07, 0.10789
 6720, 580, 0.965, 2.58053e-11, 1.03221e-06, 0.10789
 6732, 581, 0.965, 2.72547e-11, 1.09019e-06, 0.10789
 6744, 582, 0.965, 2.87817e-11, 1.15127e-06, 0.10789
 6756, 583, 0.965, 3.03905e-11, 1.21562e-06, 0.10789
 6768, 584, 0.965, 3.20851e-11, 1.2834e-06, 0.10789
 6780, 585, 0.965, 3.38699e-11, 1.3548e-06, 0.10789
 6792, 586, 0.965, 3.57495e-11, 1.42998e-06, 0.10789
 6804, 587, 0.965, 3.77287e-11, 1.50915e-06, 0.10789
 6816, 588, 0.965, 3.98125e-11, 1.5925e-06, 0.10789
 6828, 589, 0.965, 4.20061e-11, 1.68024e-06, 0.10789
 6840, 590, 0.965, 4.43151e-11, 1.7726e-06, 0.10789
 6852, 591, 0.965, 4.67452e-11, 1.86981e-06, 0.10789
 6864, 592, 0.965, 4.93024e-11, 1.9721e-06, 0.10789
 6876, 593, 0.965, 5.19932e-11, 2.07973e-06, 0.10789
 6888, 594, 0.965, 5.48241e-11, 2.19297e-06, 0.10789
 6900, 595, 0.965, 5.78021e-11, 2.31208e-06, 0.10789
 6912, 596, 0.965, 6.09344e-11, 2.43738e-06, 0.10789
 6924, 597, 0.965, 6.42287e-11, 2.56915e-06, 0.10789
 6936, 598, 0.965, 6.76929e-11, 2.70772e-06, 0.10789
 6948, 599, 0.965, 7.13354e-11, 2.85341e-06, 0.10789
 6960, 600, 0.965, 7.51648e-11, 3.00659e-06, 0.10789
 6972, 601, 0.965, 7.91903e-11, 3.16761e-06, 0.10789
 6984, 602, 0.965, 8.34215e-11, 3.33686e-06, 0.10789
 6996, 603, 0.965, 8.78682e-11, 3.51473e-06, 0.10789
 7008, 604, 0.965, 9.25411e-11, 3.70164e-06, 0.10789
 7020, 605, 0.965, 9.7451e-11, 3.89804e-06, 0.10789
 7032, 606, 0.965, 1.02609e-10, 4.10437e-06, 0.10789
 7044, 607, 0.965, 1.08028e-10, 4.32112e-06, 0.10789
 7056, 608, 0.965, 1.13719e-10, 4.54878e-06, 0.10789
 7068, 609, 0.965, 1.19697e-10, 4.78788e-06, 0.10789
 7080, 610, 0.965, 1.25974e-10, 5.03896e-06, 0.107891
 7092, 611, 0.965, 1.32565e-10, 5.3026e-06, 0.10789
 7104, 612, 0.965, 1.39485e-10, 5.57938e-06, 0.10789
 7116, 613, 0.965, 1.46749e-10, 5.86994e-06, 0.10789
 7128, 614, 0.965, 1.54373e-10, 6.17493e-06, 0.10789
 7140, 615, 0.965, 1.62375e-10, 6.49502e-06, 0.10789
 7152, 616, 0.965, 1.70773e-10, 6.83093e-06, 0.10789
 7164, 617, 0.965, 1.79585e-10, 7.18339e-06, 0.10789
 7176, 618, 0.965, 1.8883e-10, 7.55319e-06, 0.10789
 7188, 619, 0.965, 1.98528e-10, 7.94113e-06, 0.10789
 7200, 620, 0.965, 2.08702e-10, 8.34806e-06, 0.10789
 7212, 621, 0.965, 2.19372e-10, 8.77486e-06, 0.10789
 7224, 622, 0.965, 2.30561e-10, 9.22246e-06, 0.10789
 7236, 623, 0.965, 2.42295e-10, 9.69181e-06, 0.10789
 7248, 624, 0.965, 2.54598e-10, 1.01839e-05, 0.107891
 7260, 625, 0.965, 2.67496e-10, 1.06998e-05, 0.10789
 7272, 626, 0.965, 2.81016e-10, 1.12407e-05, 0.10789
 7284, 627, 0.965, 2.95188e-10, 1.18075e-05, 0.10789
 7296, 628, 0.965, 3.1004e-10, 1.24016e-05, 0.10789
 7308, 629, 0.965, 3.25604e-10, 1.30242e-05, 0.107891
 7320, 630, 0.965, 3.41913e-10, 1.36765e-05, 0.10789
 7332, 631, 0.965, 3.58999e-10, 1.436e-05, 0.107891
 7344, 632, 0.965, 3.76899e-10, 1.50759e-05, 0.10789
 7356, 633, 0.965, 3.95648e-10, 1.58259e-05, 0.107891
 7368, 634, 0.965, 4.15286e-10, 1.66114e-05, 0.10789
 7380, 635, 0.965, 4.35852e-10, 1.74341e-05, 0.10789
 7392, 636, 0.965, 4.57388e-10, 1.82955e-05, 0.107891
 7404, 637, 0.965, 4.79937e-10, 1.91975e-05, 0.107891
 7416, 638, 0.965, 5.03545e-10, 2.01418e-05, 0.107891
 7428, 639, 0.965, 5.28258e-10, 2.11303e-05, 0.10789
 7440, 640, 0.965, 5.54127e-10, 2.21651e-05, 0.107891
 7452, 641, 0.965, 5.812e-10, 2.3248e-05, 0.10789
 7464, 642, 0.965, 6.09534e-10, 2.43814e-05, 0.107891
 7476, 643, 0.965, 6.39182e-10, 2.55673e-05, 0.107891
 7488, 644, 0.965, 6.70203e-10, 2.68081e-05, 0.107891
 7500, 645, 0.965, 7.02656e-10, 2.81063e-05, 0.107891
 7512, 646, 0.965, 7.36606e-10, 2.94642e-05, 0.107891
 7524, 647, 0.965, 7.72116e-10, 3.08847e-05, 0.107891
 7536, 648, 0.965, 8.09256e-10, 3.23702e-05, 0.107891
 7548, 649, 0.965, 8.48096e-10, 3.39238e-05, 0.107891
 7560, 650, 0.965, 8.88709e-10, 3.55484e-05, 0.107891
 7572, 651, 0.965, 9.31174e-10, 3.72469e-05, 0.107891
 7584, 652, 0.965, 9.75568e-10, 3.90227e-05, 0.107891
 7596, 653, 0.965, 1.02198e-09, 4.08791e-05, 0.107891
 7608, 654, 0.965, 1.07049e-09, 4.28194e-05, 0.107891
 7620, 655, 0.965, 1.12119e-09, 4.48474e-05, 0.107891
 7632, 656, 0.965, 1.17417e-09, 4.69668e-05, 0.107891
 7644, 657, 0.965, 1.22953e-09, 4.91814e-05, 0.107891
 7656, 658, 0.965, 1.28738e-09, 5.14953e-05, 0.107891
 7668, 659, 0.965, 1.34782e-09, 5.39128e-05, 0.107891
 7680, 660, 0.965, 1.41096e-09, 5.64383e-05, 0.107891
 7692, 661, 0.965, 1.47691e-09, 5.90762e-05, 0.107891
 7704, 662, 0.965, 1.54579e-09, 6.18314e-05, 0.107891
 7716, 663, 0.965, 1.61772e-09, 6.47088e-05, 0.107891
 7728, 664, 0.965, 1.69284e-09, 6.77135e-05, 0.107891
 7740, 665, 0.965, 1.77127e-09, 7.08509e-05, 0.107891
 7752, 666, 0.965, 1.85316e-09, 7.41266e-05, 0.107891
 7764, 667, 0.965, 1.93865e-09, 7.75462e-05, 0.107891
 7776, 668, 0.965, 2.02789e-09, 8.11157e-05, 0.107891
 7788, 669, 0.964999, 2.12104e-09, 8.48415e-05, 0.107891
 7800, 670, 0.964999, 2.21825e-09, 8.873e-05, 0.107891
 7812, 671, 0.964999, 2.3197e-09, 9.27878e-05, 0.107891
 7824, 672, 0.964999, 2.42555e-09, 9.70221e-05, 0.107891
 7836, 673, 0.964999, 2.536e-09, 0.00010144, 0.107891
 7848, 674, 0.964999, 2.65123e-09, 0.000106049, 0.107891
 7860, 675, 0.964999, 2.77143e-09, 0.000110857, 0.107891
 7872, 676, 0.964999, 2.89682e-09, 0.000115873, 0.107891
 7884, 677, 0.964999, 3.02759e-09, 0.000121104, 0.107891
 7896, 678, 0.964999, 3.16397e-09, 0.000126559, 0.107891
 7908, 679, 0.964999, 3.30619e-09, 0.000132248, 0.107891
 7920, 680, 0.964999, 3.45449e-09, 0.00013818, 0.107891
 7932, 681, 0.964999, 3.6091e-09, 0.000144364, 0.107891
 7944, 682, 0.964999, 3.77029e-09, 0.000150812, 0.107891
 7956, 683, 0.964999, 3.93832e-09, 0.000157533, 0.107891
 7968, 684, 0.964999, 4.11346e-09, 0.000164539, 0.107891
 7980, 685, 0.964999, 4.29601e-09, 0.00017184, 0.107891
 7992, 686, 0.964999, 4.48624e-09, 0.00017945, 0.107891
 8004, 687, 0.964999, 4.68448e-09, 0.000187379, 0.107891
 8016, 688, 0.964999, 4.89103e-09, 0.000195641, 0.107892
 8028, 689, 0.964999, 5.10624e-09, 0.000204249, 0.107892
 8040, 690, 0.964999, 5.33044e-09, 0.000213217, 0.107892
 8052, 691, 0.964998, 5.56398e-09, 0.000222559, 0.107892
 8064, 692, 0.964998, 5.80724e-09, 0.00023229, 0.107892
 8076, 693, 0.964998, 6.0606e-09, 0.000242424, 0.107892
 8088, 694, 0.964998, 6.32446e-09, 0.000252978, 0.107892
 8100, 695, 0.964998, 6.59922e-09, 0.000263969, 0.107892
 8112, 696, 0.964998, 6.88532e-09, 0.000275413, 0.107892
 8124, 697, 0.964998, 7.18318e-09, 0.000287327, 0.107892
 8136, 698, 0.964998, 7.49329e-09, 0.000299731, 0.107892
 8148, 699, 0.964998, 7.8161e-09, 0.000312644, 0.107892
 8160, 700, 0.964998, 8.1521e-09, 0.000326084, 0.107892
 8172, 701, 0.964998, 8.50182e-09, 0.000340073, 0.107892
 8184, 702, 0.964998, 8.86578e-09, 0.000354631, 0.107892
 8196, 703, 0.964997, 9.24453e-09, 0.000369781, 0.107893
 8208, 704, 0.964997, 9.63863e-09, 0.000385545, 0.107893
 8220, 705, 0.964997, 1.00487e-08, 0.000401947, 0.107893
 8232, 706, 0.964997, 1.04753e-08, 0.000419011, 0.107893
 8244, 707, 0.964997, 1.0919e-08, 0.000436762, 0.107893
 8256, 708, 0.964997, 1.13807e-08, 0.000455226, 0.107893
 8268, 709, 0.964997, 1.18608e-08, 0.000474432, 0.107893
 8280, 710, 0.964997, 1.23601e-08, 0.000494405, 0.107893
 8292, 711, 0.964996, 1.28794e-08, 0.000515177, 0.107893
 8304, 712, 0.964996, 1.34194e-08, 0.000536777, 0.107893
 8316, 713, 0.964996, 1.39809e-08, 0.000559235, 0.107894
 8328, 714, 0.964996, 1.45646e-08, 0.000582585, 0.107894
 8340, 715, 0.964996, 1.51715e-08, 0.000606859, 0.107894
 8352, 716, 0.964996, 1.58023e-08, 0.000632093, 0.107894
 8364, 717, 0.964995, 1.6458e-08, 0.000658322, 0.107894
 8376, 718, 0.964995, 1.71396e-08, 0.000685582, 0.107894
 8388, 719, 0.964995, 1.78478e-08, 0.000713914, 0.107894
 8400, 720, 0.964995, 1.85839e-08, 0.000743355, 0.107895
 8412, 721, 0.964994, 1.93487e-08, 0.000773948, 0.107895
 8424, 722, 0.964994, 2.01434e-08, 0.000805734, 0.107895
 8436, 723, 0.964994, 2.0969e-08, 0.000838758, 0.107895
 8448, 724, 0.964994, 2.18266e-08, 0.000873065, 0.107895
 8460, 725, 0.964993, 2.27176e-08, 0.000908703, 0.107895
 8472, 726, 0.964993, 2.3643e-08, 0.000945719, 0.107896
 8484, 727, 0.964993, 2.46041e-08, 0.000984165, 0.107896
 8496, 728, 0.964993, 2.56023e-08, 0.00102409, 0.107896
 8508, 729, 0.964992, 2.66389e-08, 0.00106555, 0.107896
 8520, 730, 0.964992, 2.77152e-08, 0.00110861, 0.107897
 8532, 731, 0.964992, 2.88327e-08, 0.00115331, 0.107897
 8544, 732, 0.964991, 2.9993e-08, 0.00119972, 0.107897
 8556, 733, 0.964991, 3.11975e-08, 0.0012479, 0.107897
 8568, 734, 0.964991, 3.24478e-08, 0.00129791, 0.107898
 8580, 735, 0.96499, 3.37456e-08, 0.00134982, 0.107898
 8592, 736, 0.96499, 3.50926e-08, 0.0014037, 0.107898
 8604, 737, 0.964989, 3.64905e-08, 0.00145962, 0.107898
 8616, 738, 0.964989, 3.79411e-08, 0.00151765, 0.107899
 8628, 739, 0.964988, 3.94465e-08, 0.00157786, 0.107899
 8640, 740, 0.964988, 4.10083e-08, 0.00164033, 0.107899
 8652, 741, 0.964987, 4.26288e-08, 0.00170515, 0.1079
 8664, 742, 0.964987, 4.43099e-08, 0.00177239, 0.1079
 8676, 743, 0.964986, 4.60538e-08, 0.00184215, 0.107901
 8688, 744, 0.964986, 4.78626e-08, 0.00191451, 0.107901
 8700, 745, 0.964985, 4.97388e-08, 0.00198955, 0.107901
 8712, 746, 0.964985, 5.16846e-08, 0.00206738, 0.107902
 8724, 747, 0.964984, 5.37025e-08, 0.0021481, 0.107902
 8736, 748, 0.964983, 5.5795e-08, 0.0022318, 0.107903
 8748, 749, 0.964983, 5.79647e-08, 0.00231859, 0.107903
 8760, 750, 0.964982, 6.02142e-08, 0.00240857, 0.107904
 8772, 751, 0.964981, 6.25464e-08, 0.00250186, 0.107904
 8784, 752, 0.96498, 6.49641e-08, 0.00259857, 0.107905
 8796, 753, 0.96498, 6.74703e-08, 0.00269881, 0.107905
 8808, 754, 0.964979, 7.0068e-08, 0.00280272, 0.107906
 8820, 755, 0.964978, 7.27604e-08, 0.00291042, 0.107906
 8832, 756, 0.964977, 7.55507e-08, 0.00302203, 0.107907
 8844, 757, 0.964976, 7.84422e-08, 0.00313769, 0.107908
 8856, 758, 0.964975, 8.14385e-08, 0.00325754, 0.107909
 8868, 759, 0.964974, 8.45431e-08, 0.00338172, 0.107909
 8880, 760, 0.964973, 8.77597e-08, 0.00351039, 0.10791
 8892, 761, 0.964972, 9.10921e-08, 0.00364368, 0.107911
 8904, 762, 0.964971, 9.45442e-08, 0.00378177, 0.107911
 8916, 763, 0.96497, 9.812e-08, 0.0039248, 0.107912
 8928, 764, 0.964969, 1.01824e-07, 0.00407295, 0.107913
 8940, 765, 0.964967, 1.0566e-07, 0.0042264, 0.107914
 8952, 766, 0.964966, 1.09633e-07, 0.00438531, 0.107915
 8964, 767, 0.964965, 1.13747e-07, 0.00454987, 0.107916
 8976, 768, 0.964963, 1.18007e-07, 0.00472028, 0.107916
 8988, 769, 0.964962, 1.22418e-07, 0.00489672, 0.107917
 9000, 770, 0.96496, 1.26985e-07, 0.0050794, 0.107918
 9012, 771, 0.964959, 1.31713e-07, 0.00526852, 0.107919
 9024, 772, 0.964957, 1.36608e-07, 0.00546431, 0.107921
 9036, 773, 0.964956, 1.41674e-07, 0.00566697, 0.107922
 9048, 774, 0.964954, 1.46918e-07, 0.00587674, 0.107923
 9060, 775, 0.964952, 1.52346e-07, 0.00609385, 0.107924
 9072, 776, 0.96495, 1.57964e-07, 0.00631854, 0.107925
 9084, 777, 0.964948, 1.63777e-07, 0.00655107, 0.107926
 9096, 778, 0.964946, 1.69792e-07, 0.00679169, 0.107928
 9108, 779, 0.964944, 1.76016e-07, 0.00704066, 0.107929
 9120, 780, 0.964942, 1.82456e-07, 0.00729826, 0.10793
 9132, 781, 0.96494, 1.89119e-07, 0.00756477, 0.107932
 9144, 782, 0.964937, 1.96012e-07, 0.00784047, 0.107933
 9156, 783, 0.964935, 2.03142e-07, 0.00812567, 0.107935
 9168, 784, 0.964933, 2.10517e-07, 0.00842068, 0.107937
 9180, 785, 0.96493, 2.18145e-07, 0.00872581, 0.107938
 9192, 786, 0.964927, 2.26034e-07, 0.00904138, 0.10794
 9204, 787, 0.964925, 2.34193e-07, 0.00936774, 0.107942
 9216, 788, 0.964922, 2.42631e-07, 0.00970523, 0.107944
 9228, 789, 0.964919, 2.51355e-07, 0.0100542, 0.107946
 9240, 790, 0.964916, 2.60376e-07, 0.010415, 0.107947
 9252, 791, 0.964913, 2.69702e-07, 0.0107881, 0.10795
 9264, 792, 0.964909, 2.79345e-07, 0.0111738, 0.107952
 9276, 793, 0.964906, 2.89312e-07, 0.0115725, 0.107954
 9288, 794, 0.964902, 2.99616e-07, 0.0119846, 0.107956
 9300, 795, 0.964899, 3.10266e-07, 0.0124107, 0.107958
 9312, 796, 0.964895, 3.21274e-07, 0.012851, 0.107961
 9324, 797, 0.964891, 3.32651e-07, 0.013306, 0.107963
 9336, 798, 0.964887, 3.44408e-07, 0.0137763, 0.107966
 9348, 799, 0.964883, 3.56557e-07, 0.0142623, 0.107969
 9360, 800, 0.964878, 3.69112e-07, 0.0147645, 0.107971