File: examples/Birch_TGA_Example/Work/Cone_ixa4_k2v/birch_tga_1step_20_tga.csv
s,C,g/g,1/s,W/g,W/g
Time,Temp,Mass,MLR,MCC,DSC
 3, 21.0014, 0.999999, 2.18432e-07, 0.0000000E+000, 0.459601
 6, 22.0014, 0.999999, 2.50874e-07, 0.0000000E+000, 0.459673
 9, 23.0014, 0.999998, 2.87863e-07, 0.0000000E+000, 0.459756
 12, 24.0014, 0.999997, 3.29998e-07, 0.0000000E+000, 0.45985
 15, 25.0014, 0.999996, 3.77948e-07, 0.0000000E+000, 0.459957
 18, 26.0014, 0.999995, 4.32468e-07, 0.0000000E+000, 0.460078
 21, 27.0014, 0.999993, 4.94401e-07, 0.0000000E+000, 0.460217
 24, 28.0014, 0.999992, 5.64693e-07, 0.0000000E+000, 0.460373
 27, 29.0014, 0.99999, 6.44398e-07, 0.0000000E+000, 0.460551
 30, 30.0014, 0.999988, 7.34698e-07, 0.0000000E+000, 0.460753
 33, 31.0014, 0.999985, 8.36909e-07, 0.0000000E+000, 0.460981
 36, 32.0014, 0.999983, 9.52499e-07, 0.0000000E+000, 0.461239
 39, 33.0014, 0.99998, 1.08311e-06, 0.0000000E+000, 0.46153
 42, 34.0014, 0.999976, 1.23055e-06, 0.0000000E+000, 0.461859
 45, 35.0014, 0.999972, 1.39685e-06, 0.0000000E+000, 0.46223
 48, 36.0014, 0.999968, 1.58425e-06, 0.0000000E+000, 0.462648
 51, 37.0014, 0.999963, 1.79525e-06, 0.0000000E+000, 0.463118
 54, 38.0014, 0.999957, 2.0326e-06, 0.0000000E+000, 0.463647
 57, 39.0014, 0.999951, 2.29936e-06, 0.0000000E+000, 0.464242
 60, 40.0014, 0.999943, 2.59888e-06, 0.0000000E+000, 0.464909
 63, 41.0014, 0.999935, 2.9349e-06, 0.0000000E+000, 0.465658
 66, 42.0014, 0.999926, 3.31151e-06, 0.0000000E+000, 0.466497
 69, 43.0014, 0.999915, 3.73321e-06, 0.0000000E+000, 0.467437
 72, 44.0014, 0.999903, 4.20496e-06, 0.0000000E+000, 0.468488
 75, 45.0014, 0.99989, 4.73217e-06, 0.0000000E+000, 0.469663
 78, 46.0014, 0.999875, 5.32078e-06, 0.0000000E+000, 0.470974
 81, 47.0014, 0.999858, 5.97727e-06, 0.0000000E+000, 0.472436
 84, 48.0014, 0.999839, 6.70869e-06, 0.0000000E+000, 0.474064
 87, 49.0014, 0.999817, 7.52271e-06, 0.0000000E+000, 0.475877
 90, 50.0014, 0.999793, 8.42766e-06, 0.0000000E+000, 0.477891
 93, 51.0014, 0.999767, 9.43249e-06, 0.0000000E+000, 0.480128
 96, 52.0014, 0.999737, 1.05469e-05, 0.0000000E+000, 0.482608
 99, 53.0014, 0.999703, 1.17812e-05, 0.0000000E+000, 0.485355
 102, 54.0014, 0.999666, 1.31466e-05, 0.0000000E+000, 0.488392
 105, 55.0014, 0.999624, 1.46548e-05, 0.0000000E+000, 0.491747
 108, 56.0014, 0.999578, 1.63183e-05, 0.0000000E+000, 0.495447
 111, 57.0014, 0.999526, 1.81502e-05, 0.0000000E+000, 0.499521
 114, 58.0014, 0.999469, 2.01641e-05, 0.0000000E+000, 0.503998
 117, 59.0014, 0.999405, 2.23743e-05, 1.66062e-38, 0.508911
 120, 60.0014, 0.999334, 2.47951e-05, 2.37988e-38, 0.51429
 123, 61.0014, 0.999256, 2.74414e-05, 3.40334e-38, 0.520169
 126, 62.0014, 0.999169, 3.03275e-05, 4.85654e-38, 0.52658
 129, 63.0014, 0.999074, 3.34679e-05, 6.91562e-38, 0.533553
 132, 64.0014, 0.998968, 3.68759e-05, 9.82706e-38, 0.541118
 135, 65.0014, 0.998852, 4.05641e-05, 1.39352e-37, 0.549302
 138, 66.0014, 0.998725, 4.45431e-05, 1.97201e-37, 0.558128
 141, 67.0014, 0.998585, 4.88213e-05, 2.78496e-37, 0.567614
 144, 68.0014, 0.998431, 5.34044e-05, 3.92508e-37, 0.577771
 147, 69.0013, 0.998264, 5.82939e-05, 5.52087e-37, 0.588602
 150, 70.0013, 0.998081, 6.34867e-05, 7.75003e-37, 0.600098
 153, 71.0013, 0.997882, 6.89739e-05, 1.08578e-36, 0.612238
 156, 72.0013, 0.997667, 7.47397e-05, 1.51822e-36, 0.624984
 159, 73.0013, 0.997434, 8.076e-05, 2.11876e-36, 0.638281
 162, 74.0013, 0.997182, 8.70013e-05, 2.9512e-36, 0.652053
 165, 75.0013, 0.996911, 9.34192e-05, 4.10286e-36, 0.666197
 168, 76.0013, 0.996621, 9.99575e-05, 5.6932e-36, 0.680587
 171, 77.0013, 0.996312, 0.000106547, 7.8852e-36, 0.695064
 174, 78.0013, 0.995982, 0.000113103, 1.09009e-35, 0.709438
 177, 79.0013, 0.995633, 0.000119529, 1.50423e-35, 0.72349
 180, 80.0013, 0.995265, 0.000125711, 2.07193e-35, 0.736963
 183, 81.0013, 0.994879, 0.000131523, 2.84872e-35, 0.749574
 186, 82.0012, 0.994476, 0.000136825, 3.90973e-35, 0.761007
 189, 83.0012, 0.994059, 0.000141469, 5.35637e-35, 0.770929
 192, 84.0012, 0.993628, 0.000145297, 7.32536e-35, 0.778987
 195, 85.0012, 0.993188, 0.000148153, 1.00007e-34, 0.784831
 198, 86.0012, 0.992741, 0.000149884, 1.36294e-34, 0.788117
 201, 87.0012, 0.99229, 0.000150348, 1.85428e-34, 0.788532
 204, 88.0012, 0.99184, 0.000149424, 2.51847e-34, 0.785809
 207, 89.0012, 0.991395, 0.000147023, 3.41478e-34, 0.779748
 210, 90.0012, 0.990959, 0.000143092, 4.62233e-34, 0.770241
 213, 91.0013, 0.990538, 0.00013763, 6.24651e-34, 0.757287
 216, 92.0013, 0.990135, 0.000130688, 8.42748e-34, 0.741012
 219, 93.0013, 0.989755, 0.000122381, 1.13514e-33, 0.72168
 222, 94.0013, 0.989402, 0.000112885, 1.52649e-33, 0.699693
 225, 95.0013, 0.989079, 0.000102434, 2.04946e-33, 0.67559
 228, 96.0013, 0.988788, 9.13137e-05, 2.74722e-33, 0.65002
 231, 97.0013, 0.988531, 7.98486e-05, 3.67672e-33, 0.623717
 234, 98.0013, 0.988309, 6.8381e-05, 4.91297e-33, 0.597458
 237, 99.0014, 0.988121, 5.7251e-05, 6.55469e-33, 0.572012
 240, 100.001, 0.987965, 4.67726e-05, 8.73149e-33, 0.548086
 243, 101.001, 0.98784, 3.72118e-05, 1.16134e-32, 0.526279
 246, 102.001, 0.987741, 2.87671e-05, 1.5423e-32, 0.507037
 249, 103.001, 0.987666, 2.15582e-05, 2.04514e-32, 0.490623
 252, 104.001, 0.98761, 1.56215e-05, 2.70787e-32, 0.477116
 255, 105.001, 0.987571, 1.09153e-05, 3.58004e-32, 0.466416
 258, 106.001, 0.987544, 7.33278e-06, 4.72615e-32, 0.458275
 261, 107.001, 0.987526, 4.72103e-06, 6.23006e-32, 0.452343
 264, 108.001, 0.987515, 2.90306e-06, 8.20064e-32, 0.448216
 267, 109.001, 0.987508, 1.69873e-06, 1.0779e-31, 0.445483
 270, 110.001, 0.987504, 9.42158e-07, 1.41478e-31, 0.443767
 273, 111.001, 0.987502, 4.9318e-07, 1.85432e-31, 0.442749
 276, 112.001, 0.987501, 2.4254e-07, 2.427e-31, 0.44218
 279, 113.001, 0.9875, 1.11512e-07, 3.17213e-31, 0.441883
 282, 114.001, 0.9875, 4.76801e-08, 4.14028e-31, 0.441739
 285, 115.001, 0.9875, 1.88524e-08, 5.39652e-31, 0.441674
 288, 116.001, 0.9875, 6.85133e-09, 7.02434e-31, 0.441646
 291, 117.001, 0.9875, 2.27371e-09, 9.13083e-31, 0.441636
 294, 118.001, 0.9875, 6.84247e-10, 1.18531e-30, 0.441632
 297, 119.001, 0.9875, 1.85337e-10, 1.53666e-30, 0.441631
 300, 120.001, 0.9875, 4.4823e-11, 1.98952e-30, 0.441631
 303, 121.001, 0.9875, 9.59621e-12, 2.57247e-30, 0.441631
 306, 122.001, 0.9875, 1.80205e-12, 3.32191e-30, 0.441631
 309, 123.001, 0.9875, 2.93922e-13, 4.28415e-30, 0.441631
 312, 124.001, 0.9875, 4.12021e-14, 5.51804e-30, 0.441631
 315, 125.001, 0.9875, 4.90839e-15, 7.09827e-30, 0.441631
 318, 126.001, 0.9875, 4.90975e-16, 9.11953e-30, 0.441631
 321, 127.001, 0.9875, 4.07088e-17, 1.17017e-29, 0.441631
 324, 128.001, 0.9875, 2.75961e-18, 1.49963e-29, 0.441631
 327, 129.001, 0.9875, 1.50712e-19, 1.91949e-29, 0.441631
 330, 130.001, 0.9875, 6.52783e-21, 2.45388e-29, 0.441631
 333, 131.001, 0.9875, 2.20505e-22, 3.13325e-29, 0.441631
 336, 132.001, 0.9875, 5.70575e-24, 3.99587e-29, 0.441631
 339, 133.001, 0.9875, 1.10954e-25, 5.08989e-29, 0.441631
 342, 134.001, 0.9875, 1.5887e-27, 6.47573e-29, 0.441631
 345, 135.001, 0.9875, 1.63907e-29, 8.22918e-29, 0.441631
 348, 136.001, 0.9875, 1.21611e-31, 1.04452e-28, 0.441631
 351, 137.001, 0.9875, 3.90393e-33, 1.32425e-28, 0.441631
 354, 138.001, 0.9875, 4.19438e-33, 1.67696e-28, 0.441631
 357, 139.001, 0.9875, 5.30297e-33, 2.12119e-28, 0.441631
 360, 140.001, 0.9875, 6.70008e-33, 2.68003e-28, 0.441631
 363, 141.001, 0.9875, 8.45572e-33, 3.38229e-28, 0.441631
 366, 142.001, 0.9875, 1.06594e-32, 4.26378e-28, 0.441631
 369, 143.001, 0.9875, 1.34226e-32, 5.36902e-28, 0.441631
 372, 144.001, 0.9875, 1.68832e-32, 6.7533e-28, 0.441631
 375, 145.001, 0.9875, 2.12129e-32, 8.48516e-28, 0.441631
 378, 146.001, 0.9875, 2.66239e-32, 1.06495e-27, 0.441631
 381, 147.001, 0.9875, 3.33789e-32, 1.33516e-27, 0.441631
 384, 148.001, 0.9875, 4.1803e-32, 1.67212e-27, 0.441631
 387, 149.001, 0.9875, 5.22973e-32, 2.09189e-27, 0.441631
 390, 150.001, 0.9875, 6.53569e-32, 2.61428e-27, 0.441631
 393, 151.001, 0.9875, 8.15919e-32, 3.26368e-27, 0.441631
 396, 152.001, 0.9875, 1.01754e-31, 4.07014e-27, 0.441631
 399, 153.001, 0.9875, 1.26766e-31, 5.07063e-27, 0.441631
 402, 154.001, 0.9875, 1.57764e-31, 6.31055e-27, 0.441631
 405, 155.001, 0.9875, 1.96141e-31, 7.84565e-27, 0.441631
 408, 156.001, 0.9875, 2.43607e-31, 9.74428e-27, 0.441631
 411, 157.001, 0.9875, 3.02255e-31, 1.20902e-26, 0.441631
 414, 158.001, 0.9875, 3.74647e-31, 1.49859e-26, 0.441631
 417, 159.001, 0.9875, 4.63916e-31, 1.85566e-26, 0.441631
 420, 160.001, 0.9875, 5.73889e-31, 2.29555e-26, 0.441631
 423, 161.001, 0.9875, 7.09236e-31, 2.83694e-26, 0.441631
 426, 162.001, 0.9875, 8.75651e-31, 3.5026e-26, 0.441631
 429, 163.001, 0.9875, 1.08007e-30, 4.32028e-26, 0.441631
 432, 164.001, 0.9875, 1.33093e-30, 5.32372e-26, 0.441631
 435, 165.001, 0.9875, 1.63849e-30, 6.55397e-26, 0.441631
 438, 166.001, 0.9875, 2.01522e-30, 8.06089e-26, 0.441631
 441, 167.001, 0.9875, 2.47624e-30, 9.90497e-26, 0.441631
 444, 168.001, 0.9875, 3.03989e-30, 1.21596e-25, 0.441631
 447, 169.001, 0.9875, 3.72837e-30, 1.49135e-25, 0.441631
 450, 170.001, 0.9875, 4.56857e-30, 1.82743e-25, 0.441631
 453, 171.001, 0.9875, 5.59299e-30, 2.2372e-25, 0.441631
 456, 172.001, 0.9875, 6.84091e-30, 2.73636e-25, 0.441631
 459, 173.001, 0.9875, 8.3597e-30, 3.34388e-25, 0.441631
 462, 174.001, 0.9875, 1.02065e-29, 4.08261e-25, 0.441631
 465, 175.001, 0.9875, 1.24503e-29, 4.98011e-25, 0.441631
 468, 176.001, 0.9875, 1.51738e-29, 6.06953e-25, 0.441631
 471, 177.001, 0.9875, 1.84769e-29, 7.39078e-25, 0.441631
 474, 178.001, 0.9875, 2.24794e-29, 8.99178e-25, 0.441631
 477, 179.001, 0.9875, 2.73253e-29, 1.09301e-24, 0.441631
 480, 180.001, 0.9875, 3.31871e-29, 1.32748e-24, 0.441631
 483, 181.001, 0.9875, 4.02719e-29, 1.61088e-24, 0.441631
 486, 182.001, 0.9875, 4.88276e-29, 1.95311e-24, 0.441631
 489, 183.001, 0.9875, 5.91511e-29, 2.36604e-24, 0.441631
 492, 184.001, 0.9875, 7.15971e-29, 2.86388e-24, 0.441631
 495, 185.001, 0.9875, 8.65896e-29, 3.46358e-24, 0.441631
 498, 186.001, 0.9875, 1.04635e-28, 4.18539e-24, 0.441631
 501, 187.001, 0.9875, 1.26337e-28, 5.05347e-24, 0.441631
 504, 188.001, 0.9875, 1.52415e-28, 6.09661e-24, 0.441631
 507, 189.001, 0.9875, 1.83727e-28, 7.3491e-24, 0.441631
 510, 190.001, 0.9875, 2.21294e-28, 8.85175e-24, 0.441631
 513, 191.001, 0.9875, 2.66328e-28, 1.06531e-23, 0.441631
 516, 192.001, 0.9875, 3.20271e-28, 1.28108e-23, 0.441631
 519, 193.001, 0.9875, 3.84836e-28, 1.53934e-23, 0.441631
 522, 194.001, 0.9875, 4.62053e-28, 1.84821e-23, 0.441631
 525, 195.001, 0.9875, 5.5433e-28, 2.21732e-23, 0.441631
 528, 196.001, 0.9875, 6.6452e-28, 2.65808e-23, 0.441631
 531, 197.001, 0.9875, 7.96e-28, 3.184e-23, 0.441631
 534, 198.001, 0.9875, 9.52763e-28, 3.81105e-23, 0.441631
 537, 199.001, 0.9875, 1.13953e-27, 4.55813e-23, 0.441631
 540, 200.001, 0.9875, 1.36188e-27, 5.44752e-23, 0.441631
 543, 201.001, 0.9875, 1.62639e-27, 6.50557e-23, 0.441631
 546, 202.001, 0.9875, 1.94083e-27, 7.76331e-23, 0.441631
 549, 203.001, 0.9875, 2.31433e-27, 9.25734e-23, 0.441631
 552, 204.001, 0.9875, 2.75769e-27, 1.10307e-22, 0.441631
 555, 205.001, 0.9875, 3.28356e-27, 1.31342e-22, 0.441631
 558, 206.001, 0.9875, 3.90687e-27, 1.56275e-22, 0.441631
 561, 207.001, 0.9875, 4.64514e-27, 1.85806e-22, 0.441631
 564, 208.001, 0.9875, 5.51895e-27, 2.20758e-22, 0.441631
 567, 209.001, 0.9875, 6.55244e-27, 2.62097e-22, 0.441631
 570, 210.001, 0.9875, 7.77393e-27, 3.10957e-22, 0.441631
 573, 211.001, 0.9875, 9.21663e-27, 3.68665e-22, 0.441631
 576, 212.001, 0.9875, 1.09194e-26, 4.36776e-22, 0.441631
 579, 213.001, 0.9875, 1.29277e-26, 5.1711e-22, 0.441631
 582, 214.001, 0.9875, 1.52949e-26, 6.11794e-22, 0.441631
 585, 215.001, 0.9875, 1.80829e-26, 7.23317e-22, 0.441631
 588, 216.001, 0.9875, 2.13646e-26, 8.54584e-22, 0.441631
 591, 217.001, 0.9875, 2.52247e-26, 1.00899e-21, 0.441631
 594, 218.001, 0.9875, 2.9762e-26, 1.19048e-21, 0.441631
 597, 219.001, 0.9875, 3.50919e-26, 1.40368e-21, 0.441631
 600, 220.001, 0.9875, 4.13487e-26, 1.65395e-21, 0.441631
 603, 221.001, 0.9875, 4.86887e-26, 1.94755e-21, 0.441631
 606, 222.001, 0.9875, 5.72939e-26, 2.29176e-21, 0.441631
 609, 223.001, 0.9875, 6.73757e-26, 2.69503e-21, 0.441631
 612, 224.001, 0.9875, 7.91799e-26, 3.1672e-21, 0.441631
 615, 225.001, 0.9875, 9.29919e-26, 3.71968e-21, 0.441631
 618, 226.001, 0.9875, 1.09143e-25, 4.36572e-21, 0.441631
 621, 227.001, 0.9875, 1.28017e-25, 5.12068e-21, 0.441631
 624, 228.001, 0.9875, 1.50059e-25, 6.00238e-21, 0.441631
 627, 229.001, 0.9875, 1.75786e-25, 7.03144e-21, 0.441631
 630, 230.001, 0.9875, 2.05794e-25, 8.23175e-21, 0.441631
 633, 231.001, 0.9875, 2.40773e-25, 9.63094e-21, 0.441631
 636, 232.001, 0.9875, 2.81524e-25, 1.12609e-20, 0.441631
 639, 233.001, 0.9875, 3.28967e-25, 1.31587e-20, 0.441631
 642, 234.001, 0.9875, 3.84171e-25, 1.53668e-20, 0.441631
 645, 235.001, 0.9875, 4.48364e-25, 1.79345e-20, 0.441631
 648, 236.001, 0.9875, 5.22965e-25, 2.09186e-20, 0.441631
 651, 237.001, 0.9875, 6.09612e-25, 2.43845e-20, 0.441631
 654, 238.001, 0.9875, 7.10188e-25, 2.84075e-20, 0.441631
 657, 239.001, 0.9875, 8.26865e-25, 3.30746e-20, 0.441631
 660, 240.001, 0.9875, 9.62139e-25, 3.84856e-20, 0.441631
 663, 241.001, 0.9875, 1.11889e-24, 4.47554e-20, 0.441631
 666, 242.001, 0.9875, 1.3004e-24, 5.20162e-20, 0.441631
 669, 243.001, 0.9875, 1.51049e-24, 6.04197e-20, 0.441631
 672, 244.001, 0.9875, 1.75351e-24, 7.01402e-20, 0.441631
 675, 245.001, 0.9875, 2.03444e-24, 8.13777e-20, 0.441631
 678, 246.001, 0.9875, 2.35904e-24, 9.43616e-20, 0.441631
 681, 247.001, 0.9875, 2.73387e-24, 1.09355e-19, 0.441631
 684, 248.001, 0.9875, 3.16647e-24, 1.26659e-19, 0.441631
 687, 249.001, 0.9875, 3.66545e-24, 1.46618e-19, 0.441631
 690, 250.001, 0.9875, 4.24069e-24, 1.69628e-19, 0.441631
 693, 251.001, 0.9875, 4.90348e-24, 1.96139e-19, 0.441631
 696, 252.001, 0.9875, 5.66673e-24, 2.26669e-19, 0.441631
 699, 253.001, 0.9875, 6.54518e-24, 2.61807e-19, 0.441631
 702, 254.001, 0.9875, 7.55567e-24, 3.02227e-19, 0.441631
 705, 255.001, 0.9875, 8.71743e-24, 3.48697e-19, 0.441631
 708, 256.001, 0.9875, 1.00524e-23, 4.02095e-19, 0.441631
 711, 257.001, 0.9875, 1.15855e-23, 4.63421e-19, 0.441631
 714, 258.001, 0.9875, 1.33454e-23, 5.33815e-19, 0.441631
 717, 259.001, 0.9875, 1.53644e-23, 6.14575e-19, 0.441631
 720, 260.001, 0.9875, 1.76795e-23, 7.0718e-19, 0.441631
 723, 261.001, 0.9875, 2.03328e-23, 8.1331e-19, 0.441631
 726, 262.001, 0.9875, 2.3372e-23, 9.3488e-19, 0.441631
 729, 263.001, 0.9875, 2.68516e-23, 1.07406e-18, 0.441631
 732, 264.001, 0.9875, 3.08332e-23, 1.23333e-18, 0.441631
 735, 265.001, 0.9875, 3.53871e-23, 1.41548e-18, 0.441631
 738, 266.001, 0.9875, 4.05928e-23, 1.62371e-18, 0.441631
 741, 267.001, 0.9875, 4.65407e-23, 1.86163e-18, 0.441631
 744, 268.001, 0.9875, 5.33331e-23, 2.13333e-18, 0.441631
 747, 269.001, 0.9875, 6.10862e-23, 2.44345e-18, 0.441631
 750, 270.001, 0.9875, 6.99313e-23, 2.79725e-18, 0.441631
 753, 271.001, 0.9875, 8.00175e-23, 3.2007e-18, 0.441631
 756, 272.001, 0.9875, 9.15131e-23, 3.66052e-18, 0.441631
 759, 273.001, 0.9875, 1.04609e-22, 4.18435e-18, 0.441631
 762, 274.001, 0.9875, 1.1952e-22, 4.7808e-18, 0.441631
 765, 275.001, 0.9875, 1.3649e-22, 5.45961e-18, 0.441631
 768, 276.001, 0.9875, 1.55795e-22, 6.23179e-18, 0.441631
 771, 277.001, 0.9875, 1.77744e-22, 7.10977e-18, 0.441631
 774, 278.001, 0.9875, 2.02689e-22, 8.10756e-18, 0.441631
 777, 279.001, 0.9875, 2.31025e-22, 9.24099e-18, 0.441631
 780, 280.001, 0.9875, 2.63197e-22, 1.05279e-17, 0.441631
 783, 281.001, 0.9875, 2.99709e-22, 1.19883e-17, 0.441631
 786, 282.001, 0.9875, 3.41126e-22, 1.3645e-17, 0.441631
 789, 283.001, 0.9875, 3.88085e-22, 1.55234e-17, 0.441631
 792, 284.001, 0.9875, 4.41305e-22, 1.76522e-17, 0.441631
 795, 285.001, 0.9875, 5.01592e-22, 2.00637e-17, 0.441631
 798, 286.001, 0.9875, 5.69854e-22, 2.27942e-17, 0.441631
 801, 287.001, 0.9875, 6.47111e-22, 2.58844e-17, 0.441631
 804, 288.001, 0.9875, 7.34509e-22, 2.93804e-17, 0.441631
 807, 289.001, 0.9875, 8.33335e-22, 3.33334e-17, 0.441631
 810, 290.001, 0.9875, 9.45034e-22, 3.78014e-17, 0.441631
 813, 291.001, 0.9875, 1.07123e-21, 4.28491e-17, 0.441631
 816, 292.001, 0.9875, 1.21373e-21, 4.85493e-17, 0.441631
 819, 293.001, 0.9875, 1.37459e-21, 5.49836e-17, 0.441631
 822, 294.001, 0.9875, 1.55608e-21, 6.22433e-17, 0.441631
 825, 295.001, 0.9875, 1.76077e-21, 7.04307e-17, 0.441631
 828, 296.001, 0.9875, 1.99151e-21, 7.96605e-17, 0.441631
 831, 297.001, 0.9875, 2.25153e-21, 9.0061e-17, 0.441631
 834, 298.001, 0.9875, 2.54439e-21, 1.01776e-16, 0.441631
 837, 299.001, 0.9875, 2.87412e-21, 1.14965e-16, 0.441631
 840, 300.001, 0.9875, 3.2452e-21, 1.29808e-16, 0.441631
 843, 301.001, 0.9875, 3.66264e-21, 1.46506e-16, 0.441631
 846, 302.001, 0.9875, 4.13204e-21, 1.65282e-16, 0.441631
 849, 303.001, 0.9875, 4.65965e-21, 1.86386e-16, 0.441631
 852, 304.001, 0.9875, 5.25243e-21, 2.10097e-16, 0.441631
 855, 305.001, 0.9875, 5.91818e-21, 2.36727e-16, 0.441631
 858, 306.001, 0.9875, 6.66556e-21, 2.66622e-16, 0.441631
 861, 307.001, 0.9875, 7.50425e-21, 3.0017e-16, 0.441631
 864, 308.001, 0.9875, 8.44502e-21, 3.37801e-16, 0.441631
 867, 309.001, 0.9875, 9.49987e-21, 3.79995e-16, 0.441631
 870, 310.001, 0.9875, 1.06822e-20, 4.27287e-16, 0.441631
 873, 311.001, 0.9875, 1.20068e-20, 4.80272e-16, 0.441631
 876, 312.001, 0.9875, 1.34903e-20, 5.39611e-16, 0.441631
 879, 313.001, 0.9875, 1.5151e-20, 6.06042e-16, 0.441631
 882, 314.001, 0.9875, 1.70095e-20, 6.80381e-16, 0.441631
 885, 315.001, 0.9875, 1.90885e-20, 7.63538e-16, 0.441631
 888, 316.001, 0.9875, 2.14131e-20, 8.56524e-16, 0.441631
 891, 317.001, 0.9875, 2.40115e-20, 9.60459e-16, 0.441631
 894, 318.001, 0.9875, 2.69147e-20, 1.07659e-15, 0.441631
 897, 319.001, 0.9875, 3.01574e-20, 1.2063e-15, 0.441631
 900, 320.001, 0.9875, 3.37778e-20, 1.35111e-15, 0.441631
 903, 321.001, 0.9875, 3.78184e-20, 1.51273e-15, 0.441631
 906, 322.001, 0.9875, 4.23262e-20, 1.69305e-15, 0.441631
 909, 323.001, 0.9875, 4.73535e-20, 1.89414e-15, 0.441631
 912, 324.001, 0.9875, 5.2958e-20, 2.11832e-15, 0.441631
 915, 325.001, 0.9875, 5.92036e-20, 2.36814e-15, 0.441631
 918, 326.001, 0.9875, 6.61612e-20, 2.64645e-15, 0.441631
 921, 327.001, 0.9875, 7.39091e-20, 2.95636e-15, 0.441631
 924, 328.001, 0.9875, 8.25339e-20, 3.30135e-15, 0.441631
 927, 329.001, 0.9875, 9.21313e-20, 3.68525e-15, 0.441631
 930, 330.001, 0.9875, 1.02807e-19, 4.11229e-15, 0.441631
 933, 331.001, 0.9875, 1.14679e-19, 4.58715e-15, 0.441631
 936, 332.001, 0.9875, 1.27875e-19, 5.115e-15, 0.441631
 939, 333.001, 0.9875, 1.42538e-19, 5.70154e-15, 0.441631
 942, 334.001, 0.9875, 1.58826e-19, 6.35306e-15, 0.441631
 945, 335.001, 0.9875, 1.76913e-19, 7.07651e-15, 0.441631
 948, 336.001, 0.9875, 1.96989e-19, 7.87956e-15, 0.441631
 951, 337.001, 0.9875, 2.19266e-19, 8.77064e-15, 0.441631
 954, 338.001, 0.9875, 2.43977e-19, 9.75908e-15, 0.441631
 957, 339.001, 0.9875, 2.71378e-19, 1.08551e-14, 0.441631
 960, 340.001, 0.9875, 3.01752e-19, 1.20701e-14, 0.441631
 963, 341.001, 0.9875, 3.35409e-19, 1.34164e-14, 0.441631
 966, 342.001, 0.9875, 3.72692e-19, 1.49077e-14, 0.441631
 969, 343.001, 0.9875, 4.13978e-19, 1.65591e-14, 0.441631
 972, 344.001, 0.9875, 4.59681e-19, 1.83872e-14, 0.441631
 975, 345.001, 0.9875, 5.10256e-19, 2.04103e-14, 0.441631
 978, 346.001, 0.9875, 5.66205e-19, 2.26482e-14, 0.441631
 981, 347.001, 0.9875, 6.28079e-19, 2.51231e-14, 0.441631
 984, 348.001, 0.9875, 6.9648e-19, 2.78592e-14, 0.441631
 987, 349.001, 0.9875, 7.72075e-19, 3.0883e-14, 0.441631
 990, 350.001, 0.9875, 8.55591e-19, 3.42237e-14, 0.441631
 993, 351.001, 0.9875, 9.4783e-19, 3.79132e-14, 0.441631
 996, 352.001, 0.9875, 1.04967e-18, 4.19867e-14, 0.441631
 999, 353.001, 0.9875, 1.16207e-18, 4.64828e-14, 0.441631
 1002, 354.001, 0.9875, 1.28609e-18, 5.14436e-14, 0.441631
 1005, 355.001, 0.9875, 1.42289e-18, 5.69155e-14, 0.441631
 1008, 356.001, 0.9875, 1.57373e-18, 6.29492e-14, 0.441631
 1011, 357.001, 0.9875, 1.74001e-18, 6.96002e-14, 0.441631
 1014, 358.001, 0.9875, 1.92324e-18, 7.69295e-14, 0.441631
 1017, 359.001, 0.9875, 2.12509e-18, 8.50037e-14, 0.441631
 1020, 360.001, 0.9875, 2.34739e-18, 9.38957e-14, 0.441631
 1023, 361.001, 0.9875, 2.59213e-18, 1.03685e-13, 0.441631
 1026, 362.001, 0.9875, 2.8615e-18, 1.1446e-13, 0.441631
 1029, 363.001, 0.9875, 3.15787e-18, 1.26315e-13, 0.441631
 1032, 364.001, 0.9875, 3.48386e-18, 1.39355e-13, 0.441631
 1035, 365.001, 0.9875, 3.84232e-18, 1.53693e-13, 0.441631
 1038, 366.001, 0.9875, 4.23637e-18, 1.69455e-13, 0.441631
 1041, 367.001, 0.9875, 4.6694e-18, 1.86776e-13, 0.441631
 1044, 368.001, 0.9875, 5.14514e-18, 2.05805e-13, 0.441631
 1047, 369.001, 0.9875, 5.66763e-18, 2.26705e-13, 0.441631
 1050, 370.001, 0.9875, 6.2413e-18, 2.49652e-13, 0.441631
 1053, 371.001, 0.9875, 6.87098e-18, 2.74839e-13, 0.441631
 1056, 372.001, 0.9875, 7.56193e-18, 3.02477e-13, 0.441631
 1059, 373.001, 0.9875, 8.3199e-18, 3.32796e-13, 0.441631
 1062, 374.001, 0.9875, 9.15115e-18, 3.66046e-13, 0.441631
 1065, 375.001, 0.9875, 1.00625e-17, 4.02499e-13, 0.441631
 1068, 376.001, 0.9875, 1.10613e-17, 4.42454e-13, 0.441631
 1071, 377.001, 0.9875, 1.21558e-17, 4.86232e-13, 0.441631
 1074, 378.001, 0.9875, 1.33547e-17, 5.34188e-13, 0.441631
 1077, 379.001, 0.9875, 1.46676e-17, 5.86704e-13, 0.441631
 1080, 380.001, 0.9875, 1.6105e-17, 6.44198e-13, 0.441631
 1083, 381.001, 0.9875, 1.76781e-17, 7.07124e-13, 0.441631
 1086, 382.001, 0.9875, 1.93994e-17, 7.75976e-13, 0.441631
 1089, 383.001, 0.9875, 2.12823e-17, 8.51291e-13, 0.441631
 1092, 384.001, 0.9875, 2.33413e-17, 9.33652e-13, 0.441631
 1095, 385.001, 0.9875, 2.55924e-17, 1.02369e-12, 0.441631
 1098, 386.001, 0.9875, 2.80527e-17, 1.12211e-12, 0.441631
 1101, 387.001, 0.9875, 3.0741e-17, 1.22964e-12, 0.441631
 1104, 388.001, 0.9875, 3.36776e-17, 1.3471e-12, 0.441631
 1107, 389.001, 0.9875, 3.68845e-17, 1.47538e-12, 0.441631
 1110, 390.001, 0.9875, 4.03857e-17, 1.61543e-12, 0.441631
 1113, 391.001, 0.9875, 4.42073e-17, 1.76829e-12, 0.441631
 1116, 392.001, 0.9875, 4.83773e-17, 1.93509e-12, 0.441631
 1119, 393.001, 0.9875, 5.29263e-17, 2.11705e-12, 0.441631
 1122, 394.001, 0.9875, 5.78874e-17, 2.3155e-12, 0.441631
 1125, 395.001, 0.9875, 6.32966e-17, 2.53187e-12, 0.441631
 1128, 396.001, 0.9875, 6.91928e-17, 2.76771e-12, 0.441631
 1131, 397.001, 0.9875, 7.56182e-17, 3.02473e-12, 0.441631
 1134, 398.001, 0.9875, 8.26183e-17, 3.30473e-12, 0.441631
 1137, 399.001, 0.9875, 9.02427e-17, 3.60971e-12, 0.441631
 1140, 400.001, 0.9875, 9.85449e-17, 3.94179e-12, 0.441631
 1143, 401.001, 0.9875, 1.07583e-16, 4.30331e-12, 0.441631
 1146, 402.001, 0.9875, 1.17419e-16, 4.69676e-12, 0.441631
 1149, 403.001, 0.9875, 1.28121e-16, 5.12485e-12, 0.441631
 1152, 404.001, 0.9875, 1.39763e-16, 5.59052e-12, 0.441631
 1155, 405.001, 0.9875, 1.52424e-16, 6.09695e-12, 0.441631
 1158, 406.001, 0.9875, 1.66189e-16, 6.64755e-12, 0.441631
 1161, 407.001, 0.9875, 1.81151e-16, 7.24603e-12, 0.441631
 1164, 408.001, 0.9875, 1.9741e-16, 7.89639e-12, 0.441631
 1167, 409.001, 0.9875, 2.15074e-16, 8.60296e-12, 0.441631
 1170, 410.001, 0.9875, 2.3426e-16, 9.3704e-12, 0.441631
 1173, 411.001, 0.9875, 2.55094e-16, 1.02038e-11, 0.441631
 1176, 412.001, 0.9875, 2.77711e-16, 1.11085e-11, 0.441631
 1179, 413.001, 0.9875, 3.02259e-16, 1.20904e-11, 0.441631
 1182, 414.001, 0.9875, 3.28896e-16, 1.31559e-11, 0.441631
 1185, 415.001, 0.9875, 3.57793e-16, 1.43117e-11, 0.441631
 1188, 416.001, 0.9875, 3.89133e-16, 1.55653e-11, 0.441631
 1191, 417.001, 0.9875, 4.23115e-16, 1.69246e-11, 0.441631
 1194, 418.001, 0.9875, 4.59954e-16, 1.83981e-11, 0.441631
 1197, 419.001, 0.9875, 4.99879e-16, 1.99952e-11, 0.441631
 1200, 420.001, 0.9875, 5.43139e-16, 2.17256e-11, 0.441631
 1203, 421.001, 0.9875, 5.90002e-16, 2.36001e-11, 0.441631
 1206, 422.001, 0.9875, 6.40757e-16, 2.56303e-11, 0.441631
 1209, 423.001, 0.9875, 6.95712e-16, 2.78285e-11, 0.441631
 1212, 424.001, 0.9875, 7.55202e-16, 3.02081e-11, 0.441631
 1215, 425.001, 0.9875, 8.19586e-16, 3.27834e-11, 0.441631
 1218, 426.001, 0.9875, 8.89251e-16, 3.557e-11, 0.441631
 1221, 427.001, 0.9875, 9.64613e-16, 3.85845e-11, 0.441631
 1224, 428.001, 0.9875, 1.04612e-15, 4.18448e-11, 0.441631
 1227, 429.001, 0.9875, 1.13425e-15, 4.537e-11, 0.441631
 1230, 430.001, 0.9875, 1.22952e-15, 4.91809e-11, 0.441631
 1233, 431.001, 0.9875, 1.33249e-15, 5.32997e-11, 0.441631
 1236, 432.001, 0.9875, 1.44376e-15, 5.77503e-11, 0.441631
 1239, 433.001, 0.9875, 1.56396e-15, 6.25582e-11, 0.441631
 1242, 434.001, 0.9875, 1.69378e-15, 6.77512e-11, 0.441631
 1245, 435.001, 0.9875, 1.83397e-15, 7.33586e-11, 0.441631
 1248, 436.001, 0.9875, 1.98531e-15, 7.94124e-11, 0.441631
 1251, 437.001, 0.9875, 2.14866e-15, 8.59465e-11, 0.441631
 1254, 438.001, 0.9875, 2.32494e-15, 9.29976e-11, 0.441631
 1257, 439.001, 0.9875, 2.51512e-15, 1.00605e-10, 0.441631
 1260, 440.001, 0.9875, 2.72026e-15, 1.08811e-10, 0.441631
 1263, 441.001, 0.9875, 2.94149e-15, 1.1766e-10, 0.441631
 1266, 442.001, 0.9875, 3.18001e-15, 1.272e-10, 0.441631
 1269, 443.001, 0.9875, 3.43712e-15, 1.37485e-10, 0.441631
 1272, 444.001, 0.9875, 3.71422e-15, 1.48569e-10, 0.441631
 1275, 445.001, 0.9875, 4.01279e-15, 1.60512e-10, 0.441631
 1278, 446.001, 0.9875, 4.33443e-15, 1.73377e-10, 0.441631
 1281, 447.001, 0.9875, 4.68084e-15, 1.87234e-10, 0.441631
 1284, 448.001, 0.9875, 5.05387e-15, 2.02155e-10, 0.441631
 1287, 449.001, 0.9875, 5.45546e-15, 2.18218e-10, 0.441631
 1290, 450.001, 0.9875, 5.88772e-15, 2.35509e-10, 0.441631
 1293, 451.001, 0.9875, 6.35289e-15, 2.54116e-10, 0.441631
 1296, 452.001, 0.9875, 6.85337e-15, 2.74135e-10, 0.441631
 1299, 453.001, 0.9875, 7.39174e-15, 2.9567e-10, 0.441631
 1302, 454.001, 0.9875, 7.97074e-15, 3.1883e-10, 0.441631
 1305, 455.001, 0.9875, 8.59332e-15, 3.43733e-10, 0.441631
 1308, 456.001, 0.9875, 9.26261e-15, 3.70505e-10, 0.441631
 1311, 457.001, 0.9875, 9.98199e-15, 3.99279e-10, 0.441631
 1314, 458.001, 0.9875, 1.0755e-14, 4.30201e-10, 0.441631
 1317, 459.001, 0.9875, 1.15856e-14, 4.63423e-10, 0.441631
 1320, 460.001, 0.9875, 1.24777e-14, 4.99109e-10, 0.441631
 1323, 461.001, 0.9875, 1.34359e-14, 5.37434e-10, 0.441631
 1326, 462.001, 0.9875, 1.44647e-14, 5.78586e-10, 0.441631
 1329, 463.001, 0.9875, 1.55691e-14, 6.22764e-10, 0.441631
 1332, 464.001, 0.9875, 1.67545e-14, 6.70182e-10, 0.441631
 1335, 465.001, 0.9875, 1.80267e-14, 7.21066e-10, 0.441631
 1338, 466.001, 0.9875, 1.93915e-14, 7.75661e-10, 0.441631
 1341, 467.001, 0.9875, 2.08556e-14, 8.34224e-10, 0.441631
 1344, 468.001, 0.9875, 2.24258e-14, 8.97033e-10, 0.441631
 1347, 469.001, 0.9875, 2.41095e-14, 9.64382e-10, 0.441631
 1350, 470.001, 0.9875, 2.59146e-14, 1.03659e-09, 0.441631
 1353, 471.001, 0.9875, 2.78495e-14, 1.11398e-09, 0.441631
 1356, 472.001, 0.9875, 2.9923e-14, 1.19692e-09, 0.441631
 1359, 473.001, 0.9875, 3.21447e-14, 1.28579e-09, 0.441631
 1362, 474.001, 0.9875, 3.45247e-14, 1.38099e-09, 0.441631
 1365, 475.001, 0.9875, 3.70739e-14, 1.48296e-09, 0.441631
 1368, 476.001, 0.9875, 3.98037e-14, 1.59215e-09, 0.441631
 1371, 477.001, 0.9875, 4.27264e-14, 1.70906e-09, 0.441631
 1374, 478.001, 0.9875, 4.58551e-14, 1.83421e-09, 0.441631
 1377, 479.001, 0.9875, 4.92037e-14, 1.96815e-09, 0.441631
 1380, 480.001, 0.9875, 5.27869e-14, 2.11147e-09, 0.441631
 1383, 481.001, 0.9875, 5.66204e-14, 2.26482e-09, 0.441631
 1386, 482.001, 0.9875, 6.07212e-14, 2.42885e-09, 0.441631
 1389, 483.001, 0.9875, 6.51068e-14, 2.60427e-09, 0.441631
 1392, 484.001, 0.9875, 6.97964e-14, 2.79186e-09, 0.441631
 1395, 485.001, 0.9875, 7.481e-14, 2.9924e-09, 0.441631
 1398, 486.001, 0.9875, 8.01691e-14, 3.20677e-09, 0.441631
 1401, 487.001, 0.9875, 8.58965e-14, 3.43586e-09, 0.441631
 1404, 488.001, 0.9875, 9.20164e-14, 3.68065e-09, 0.441631
 1407, 489.001, 0.9875, 9.85544e-14, 3.94218e-09, 0.441631
 1410, 490.001, 0.9875, 1.05538e-13, 4.22152e-09, 0.441631
 1413, 491.001, 0.9875, 1.12996e-13, 4.51985e-09, 0.441631
 1416, 492.001, 0.9875, 1.2096e-13, 4.8384e-09, 0.441631
 1419, 493.001, 0.9875, 1.29462e-13, 5.17848e-09, 0.441631
 1422, 494.001, 0.9875, 1.38537e-13, 5.54149e-09, 0.441631
 1425, 495.001, 0.9875, 1.48222e-13, 5.92889e-09, 0.441631
 1428, 496.001, 0.9875, 1.58556e-13, 6.34226e-09, 0.441631
 1431, 497.001, 0.9875, 1.69581e-13, 6.78326e-09, 0.441631
 1434, 498.001, 0.9875, 1.81342e-13, 7.25366e-09, 0.441631
 1437, 499.001, 0.9875, 1.93884e-13, 7.75534e-09, 0.441631
 1440, 500.001, 0.9875, 2.07257e-13, 8.29028e-09, 0.441631
 1443, 501.001, 0.9875, 2.21515e-13, 8.86059e-09, 0.441631
 1446, 502.001, 0.9875, 2.36713e-13, 9.46851e-09, 0.441631
 1449, 503.001, 0.9875, 2.5291e-13, 1.01164e-08, 0.441631
 1452, 504.001, 0.9875, 2.7017e-13, 1.08068e-08, 0.441631
 1455, 505.001, 0.9875, 2.88559e-13, 1.15424e-08, 0.441631
 1458, 506.001, 0.9875, 3.08147e-13, 1.23259e-08, 0.441631
 1461, 507.001, 0.9875, 3.29009e-13, 1.31604e-08, 0.441631
 1464, 508.001, 0.9875, 3.51226e-13, 1.4049e-08, 0.441631
 1467, 509.001, 0.9875, 3.74879e-13, 1.49952e-08, 0.441631
 1470, 510.001, 0.9875, 4.00059e-13, 1.60024e-08, 0.441631
 1473, 511.001, 0.9875, 4.26859e-13, 1.70744e-08, 0.441631
 1476, 512.001, 0.9875, 4.5538e-13, 1.82152e-08, 0.441631
 1479, 513.001, 0.9875, 4.85726e-13, 1.94291e-08, 0.441631
 1482, 514.001, 0.9875, 5.1801e-13, 2.07204e-08, 0.441631
 1485, 515.001, 0.9875, 5.52349e-13, 2.2094e-08, 0.441631
 1488, 516.001, 0.9875, 5.88869e-13, 2.35547e-08, 0.441631
 1491, 517.001, 0.9875, 6.27701e-13, 2.5108e-08, 0.441631
 1494, 518.001, 0.9875, 6.68987e-13, 2.67595e-08, 0.441631
 1497, 519.001, 0.9875, 7.12873e-13, 2.85149e-08, 0.441631
 1500, 520.001, 0.9875, 7.59516e-13, 3.03806e-08, 0.441631
 1503, 521.001, 0.9875, 8.09082e-13, 3.23633e-08, 0.441631
 1506, 522.001, 0.9875, 8.61746e-13, 3.44698e-08, 0.441631
 1509, 523.001, 0.9875, 9.17692e-13, 3.67077e-08, 0.441631
 1512, 524.001, 0.9875, 9.77116e-13, 3.90846e-08, 0.441631
 1515, 525.001, 0.9875, 1.04022e-12, 4.1609e-08, 0.441631
 1518, 526.001, 0.9875, 1.10724e-12, 4.42894e-08, 0.441631
 1521, 527.001, 0.9875, 1.17838e-12, 4.71352e-08, 0.441631
 1524, 528.001, 0.9875, 1.2539e-12, 5.0156e-08, 0.441631
 1527, 529.001, 0.9875, 1.33405e-12, 5.33621e-08, 0.441631
 1530, 530.001, 0.9875, 1.41911e-12, 5.67645e-08, 0.441631
 1533, 531.001, 0.9875, 1.50936e-12, 6.03745e-08, 0.441631
 1536, 532.001, 0.9875, 1.6051e-12, 6.42042e-08, 0.441631
 1539, 533.001, 0.9875, 1.70666e-12, 6.82664e-08, 0.441631
 1542, 534.001, 0.9875, 1.81437e-12, 7.25747e-08, 0.441631
 1545, 535.001, 0.9875, 1.92858e-12, 7.71431e-08, 0.441631
 1548, 536.001, 0.9875, 2.04967e-12, 8.19867e-08, 0.441631
 1551, 537.001, 0.9875, 2.17803e-12, 8.71214e-08, 0.441631
 1554, 538.001, 0.9875, 2.31409e-12, 9.25637e-08, 0.441631
 1557, 539.001, 0.9875, 2.45829e-12, 9.83314e-08, 0.441631
 1560, 540.001, 0.9875, 2.61107e-12, 1.04443e-07, 0.441631
 1563, 541.001, 0.9875, 2.77295e-12, 1.10918e-07, 0.441631
 1566, 542.001, 0.9875, 2.94442e-12, 1.17777e-07, 0.441631
 1569, 543.001, 0.9875, 3.12604e-12, 1.25042e-07, 0.441631
 1572, 544.001, 0.9875, 3.31837e-12, 1.32735e-07, 0.441631
 1575, 545.001, 0.9875, 3.52203e-12, 1.40881e-07, 0.441631
 1578, 546.001, 0.9875, 3.73764e-12, 1.49506e-07, 0.441631
 1581, 547.001, 0.9875, 3.96587e-12, 1.58635e-07, 0.441631
 1584, 548.001, 0.9875, 4.20743e-12, 1.68297e-07, 0.441631
 1587, 549.001, 0.9875, 4.46307e-12, 1.78523e-07, 0.441631
 1590, 550.001, 0.9875, 4.73356e-12, 1.89342e-07, 0.441631
 1593, 551.001, 0.9875, 5.01972e-12, 2.00789e-07, 0.441631
 1596, 552.001, 0.9875, 5.32243e-12, 2.12897e-07, 0.441631
 1599, 553.001, 0.9875, 5.64259e-12, 2.25704e-07, 0.441631
 1602, 554.001, 0.9875, 5.98117e-12, 2.39247e-07, 0.441631
 1605, 555.001, 0.9875, 6.33917e-12, 2.53567e-07, 0.441631
 1608, 556.001, 0.9875, 6.71765e-12, 2.68706e-07, 0.441631
 1611, 557.001, 0.9875, 7.11774e-12, 2.8471e-07, 0.441631
 1614, 558.001, 0.9875, 7.54061e-12, 3.01624e-07, 0.441631
 1617, 559.001, 0.9875, 7.98749e-12, 3.19499e-07, 0.441631
 1620, 560.001, 0.9875, 8.45968e-12, 3.38387e-07, 0.441631
 1623, 561.001, 0.9875, 8.95856e-12, 3.58342e-07, 0.441631
 1626, 562.001, 0.9875, 9.48555e-12, 3.79422e-07, 0.441631
 1629, 563.001, 0.9875, 1.00422e-11, 4.01687e-07, 0.441631
 1632, 564.001, 0.9875, 1.063e-11, 4.25201e-07, 0.441631
 1635, 565.001, 0.9875, 1.12507e-11, 4.50029e-07, 0.441631
 1638, 566.001, 0.9875, 1.19061e-11, 4.76243e-07, 0.441631
 1641, 567.001, 0.9875, 1.25979e-11, 5.03917e-07, 0.441631
 1644, 568.001, 0.9875, 1.33282e-11, 5.33126e-07, 0.441631
 1647, 569.001, 0.9875, 1.40988e-11, 5.63954e-07, 0.441631
 1650, 570.001, 0.9875, 1.49121e-11, 5.96484e-07, 0.441631
 1653, 571.001, 0.9875, 1.57702e-11, 6.30807e-07, 0.441631
 1656, 572.001, 0.9875, 1.66754e-11, 6.67017e-07, 0.441631
 1659, 573.001, 0.9875, 1.76303e-11, 7.05212e-07, 0.441631
 1662, 574.001, 0.9875, 1.86374e-11, 7.45496e-07, 0.441631
 1665, 575.001, 0.9875, 1.96995e-11, 7.87978e-07, 0.441631
 1668, 576.001, 0.9875, 2.08193e-11, 8.32773e-07, 0.441631
 1671, 577.001, 0.9875, 2.2e-11, 8.79999e-07, 0.441631
 1674, 578.001, 0.9875, 2.32446e-11, 9.29783e-07, 0.441631
 1677, 579.001, 0.9875, 2.45564e-11, 9.82257e-07, 0.441631
 1680, 580.001, 0.9875, 2.5939e-11, 1.03756e-06, 0.441631
 1683, 581.001, 0.9875, 2.73958e-11, 1.09583e-06, 0.441631
 1686, 582.001, 0.9875, 2.89308e-11, 1.15723e-06, 0.441631
 1689, 583.001, 0.9875, 3.05479e-11, 1.22192e-06, 0.441631
 1692, 584.001, 0.9875, 3.22513e-11, 1.29005e-06, 0.441631
 1695, 585.001, 0.9875, 3.40454e-11, 1.36182e-06, 0.441631
 1698, 586.001, 0.9875, 3.59347e-11, 1.43739e-06, 0.441631
 1701, 587.001, 0.9875, 3.79242e-11, 1.51697e-06, 0.441631
 1704, 588.001, 0.9875, 4.00187e-11, 1.60075e-06, 0.441631
 1707, 589.001, 0.9875, 4.22237e-11, 1.68895e-06, 0.441631
 1710, 590.001, 0.9875, 4.45446e-11, 1.78179e-06, 0.441631
 1713, 591.001, 0.9875, 4.69873e-11, 1.87949e-06, 0.441631
 1716, 592.001, 0.9875, 4.95579e-11, 1.98231e-06, 0.441631
 1719, 593.001, 0.9875, 5.22626e-11, 2.0905e-06, 0.441631
 1722, 594.001, 0.9875, 5.51082e-11, 2.20433e-06, 0.441631
 1725, 595.001, 0.9875, 5.81016e-11, 2.32406e-06, 0.441631
 1728, 596.001, 0.9875, 6.12502e-11, 2.45001e-06, 0.441631
 1731, 597.001, 0.9875, 6.45615e-11, 2.58246e-06, 0.441631
 1734, 598.001, 0.9875, 6.80437e-11, 2.72175e-06, 0.441631
 1737, 599.001, 0.9875, 7.1705e-11, 2.8682e-06, 0.441631
 1740, 600.001, 0.9875, 7.55543e-11, 3.02217e-06, 0.441631
 1743, 601.001, 0.9875, 7.96007e-11, 3.18403e-06, 0.441631
 1746, 602.001, 0.9875, 8.38538e-11, 3.35415e-06, 0.441631
 1749, 603.001, 0.9875, 8.83236e-11, 3.53295e-06, 0.441631
 1752, 604.001, 0.9875, 9.30207e-11, 3.72083e-06, 0.441631
 1755, 605.001, 0.9875, 9.79561e-11, 3.91824e-06, 0.441631
 1758, 606.001, 0.9875, 1.03141e-10, 4.12564e-06, 0.441631
 1761, 607.001, 0.9875, 1.08588e-10, 4.34352e-06, 0.441631
 1764, 608.001, 0.9875, 1.14309e-10, 4.57236e-06, 0.441631
 1767, 609.001, 0.9875, 1.20317e-10, 4.8127e-06, 0.441631
 1770, 610.001, 0.9875, 1.26627e-10, 5.06508e-06, 0.441631
 1773, 611.001, 0.9875, 1.33252e-10, 5.33009e-06, 0.441631
 1776, 612.001, 0.9875, 1.40208e-10, 5.60831e-06, 0.441631
 1779, 613.001, 0.9875, 1.47509e-10, 5.90038e-06, 0.441631
 1782, 614.001, 0.9875, 1.55174e-10, 6.20694e-06, 0.441631
 1785, 615.001, 0.9875, 1.63217e-10, 6.52869e-06, 0.441631
 1788, 616.001, 0.9875, 1.71659e-10, 6.86634e-06, 0.441631
 1791, 617.001, 0.9875, 1.80516e-10, 7.22064e-06, 0.441631
 1794, 618.001, 0.9875, 1.89809e-10, 7.59235e-06, 0.441631
 1797, 619.001, 0.9875, 1.99558e-10, 7.98231e-06, 0.441631
 1800, 620.001, 0.9875, 2.09784e-10, 8.39135e-06, 0.441631
 1803, 621.001, 0.9875, 2.20509e-10, 8.82037e-06, 0.441631
 1806, 622.001, 0.9875, 2.31757e-10, 9.27028e-06, 0.441631
 1809, 623.001, 0.9875, 2.43552e-10, 9.74207e-06, 0.441631
 1812, 624.001, 0.9875, 2.55918e-10, 1.02367e-05, 0.441631
 1815, 625.001, 0.9875, 2.68883e-10, 1.07553e-05, 0.441631
 1818, 626.001, 0.9875, 2.82474e-10, 1.1299e-05, 0.441631
 1821, 627.001, 0.9875, 2.96719e-10, 1.18688e-05, 0.441631
 1824, 628.001, 0.9875, 3.11648e-10, 1.24659e-05, 0.441631
 1827, 629.001, 0.9875, 3.27293e-10, 1.30917e-05, 0.441631
 1830, 630.001, 0.9875, 3.43686e-10, 1.37474e-05, 0.441631
 1833, 631.001, 0.9875, 3.60861e-10, 1.44344e-05, 0.441631
 1836, 632.001, 0.9875, 3.78854e-10, 1.51542e-05, 0.441631
 1839, 633.001, 0.9875, 3.97701e-10, 1.5908e-05, 0.441631
 1842, 634.001, 0.9875, 4.17441e-10, 1.66976e-05, 0.441631
 1845, 635.001, 0.9875, 4.38113e-10, 1.75245e-05, 0.441631
 1848, 636.001, 0.9875, 4.59761e-10, 1.83904e-05, 0.441631
 1851, 637.001, 0.9875, 4.82427e-10, 1.92971e-05, 0.441631
 1854, 638.001, 0.9875, 5.06158e-10, 2.02463e-05, 0.441631
 1857, 639.001, 0.9875, 5.30999e-10, 2.124e-05, 0.441631
 1860, 640.001, 0.9875, 5.57002e-10, 2.22801e-05, 0.441631
 1863, 641.001, 0.9875, 5.84216e-10, 2.33687e-05, 0.441631
 1866, 642.001, 0.9875, 6.12697e-10, 2.45079e-05, 0.441631
 1869, 643.001, 0.9875, 6.42499e-10, 2.57e-05, 0.441631
 1872, 644.001, 0.9875, 6.73681e-10, 2.69472e-05, 0.441631
 1875, 645.001, 0.9875, 7.06303e-10, 2.82521e-05, 0.441631
 1878, 646.001, 0.9875, 7.40429e-10, 2.96171e-05, 0.441631
 1881, 647.001, 0.9875, 7.76123e-10, 3.10449e-05, 0.441631
 1884, 648.001, 0.9875, 8.13456e-10, 3.25382e-05, 0.441631
 1887, 649.001, 0.9875, 8.52498e-10, 3.40999e-05, 0.441631
 1890, 650.001, 0.9875, 8.93322e-10, 3.57329e-05, 0.441631
 1893, 651.001, 0.9875, 9.36007e-10, 3.74403e-05, 0.441631
 1896, 652.001, 0.9875, 9.80632e-10, 3.92253e-05, 0.441631
 1899, 653.001, 0.9875, 1.02728e-09, 4.10913e-05, 0.441631
 1902, 654.001, 0.9875, 1.07604e-09, 4.30417e-05, 0.441631
 1905, 655.001, 0.9875, 1.12701e-09, 4.50802e-05, 0.441631
 1908, 656.001, 0.9875, 1.18026e-09, 4.72106e-05, 0.441631
 1911, 657.001, 0.9875, 1.23592e-09, 4.94367e-05, 0.441631
 1914, 658.001, 0.9875, 1.29407e-09, 5.17627e-05, 0.441631
 1917, 659.001, 0.9875, 1.35482e-09, 5.41927e-05, 0.441631
 1920, 660.001, 0.9875, 1.41828e-09, 5.67313e-05, 0.441631
 1923, 661.001, 0.9875, 1.48457e-09, 5.93829e-05, 0.441631
 1926, 662.001, 0.9875, 1.55381e-09, 6.21525e-05, 0.441631
 1929, 663.001, 0.9875, 1.62612e-09, 6.50448e-05, 0.441631
 1932, 664.001, 0.9875, 1.70163e-09, 6.80652e-05, 0.441631
 1935, 665.001, 0.9875, 1.78047e-09, 7.12188e-05, 0.441631
 1938, 666.001, 0.9875, 1.86279e-09, 7.45115e-05, 0.441631
 1941, 667.001, 0.9875, 1.94872e-09, 7.79489e-05, 0.441631
 1944, 668.001, 0.9875, 2.03842e-09, 8.1537e-05, 0.441631
 1947, 669.001, 0.9875, 2.13205e-09, 8.52821e-05, 0.441631
 1950, 670.001, 0.9875, 2.22977e-09, 8.91908e-05, 0.441631
 1953, 671.001, 0.9875, 2.33174e-09, 9.32698e-05, 0.441631
 1956, 672.001, 0.9875, 2.43815e-09, 9.7526e-05, 0.441631
 1959, 673.001, 0.9875, 2.54917e-09, 0.000101967, 0.441631
 1962, 674.001, 0.9875, 2.665e-09, 0.0001066, 0.441631
 1965, 675.001, 0.9875, 2.78583e-09, 0.000111433, 0.441632
 1968, 676.001, 0.9875, 2.91186e-09, 0.000116475, 0.441632
 1971, 677.001, 0.9875, 3.04332e-09, 0.000121733, 0.441632
 1974, 678.001, 0.9875, 3.18041e-09, 0.000127216, 0.441632
 1977, 679.001, 0.9875, 3.32337e-09, 0.000132935, 0.441632
 1980, 680.001, 0.9875, 3.47244e-09, 0.000138897, 0.441632
 1983, 681.001, 0.9875, 3.62786e-09, 0.000145114, 0.441632
 1986, 682.001, 0.9875, 3.78988e-09, 0.000151595, 0.441632
 1989, 683.001, 0.9875, 3.95878e-09, 0.000158351, 0.441632
 1992, 684.001, 0.9875, 4.13484e-09, 0.000165394, 0.441632
 1995, 685.001, 0.9875, 4.31833e-09, 0.000172733, 0.441632
 1998, 686.001, 0.9875, 4.50955e-09, 0.000180382, 0.441632
 2001, 687.001, 0.9875, 4.70882e-09, 0.000188353, 0.441632
 2004, 688.001, 0.9875, 4.91645e-09, 0.000196658, 0.441632
 2007, 689.001, 0.9875, 5.13277e-09, 0.000205311, 0.441632
 2010, 690.001, 0.9875, 5.35814e-09, 0.000214325, 0.441632
 2013, 691.001, 0.9875, 5.5929e-09, 0.000223716, 0.441632
 2016, 692.001, 0.9875, 5.83742e-09, 0.000233497, 0.441632
 2019, 693.001, 0.9875, 6.0921e-09, 0.000243684, 0.441632
 2022, 694.001, 0.9875, 6.35733e-09, 0.000254293, 0.441632
 2025, 695.001, 0.9875, 6.63352e-09, 0.000265341, 0.441632
 2028, 696.001, 0.9875, 6.92111e-09, 0.000276844, 0.441632
 2031, 697.001, 0.9875, 7.22053e-09, 0.000288821, 0.441632
 2034, 698.001, 0.987499, 7.53224e-09, 0.00030129, 0.441633
 2037, 699.001, 0.987499, 7.85673e-09, 0.000314269, 0.441633
 2040, 700.001, 0.987499, 8.19449e-09, 0.00032778, 0.441633
 2043, 701.001, 0.987499, 8.54603e-09, 0.000341841, 0.441633
 2046, 702.001, 0.987499, 8.91188e-09, 0.000356475, 0.441633
 2049, 703.001, 0.987499, 9.29259e-09, 0.000371704, 0.441633
 2052, 704.001, 0.987499, 9.68874e-09, 0.00038755, 0.441633
 2055, 705.001, 0.987499, 1.01009e-08, 0.000404037, 0.441633
 2058, 706.001, 0.987499, 1.05297e-08, 0.000421189, 0.441633
 2061, 707.001, 0.987499, 1.09758e-08, 0.000439033, 0.441633
 2064, 708.001, 0.987499, 1.14398e-08, 0.000457594, 0.441633
 2067, 709.001, 0.987499, 1.19225e-08, 0.000476899, 0.441634
 2070, 710.001, 0.987499, 1.24244e-08, 0.000496977, 0.441634
 2073, 711.001, 0.987499, 1.29464e-08, 0.000517857, 0.441634
 2076, 712.001, 0.987499, 1.34892e-08, 0.000539569, 0.441634
 2079, 713.001, 0.987499, 1.40536e-08, 0.000562144, 0.441634
 2082, 714.001, 0.987499, 1.46404e-08, 0.000585616, 0.441634
 2085, 715.001, 0.987499, 1.52504e-08, 0.000610016, 0.441634
 2088, 716.001, 0.987499, 1.58845e-08, 0.000635382, 0.441635
 2091, 717.001, 0.987499, 1.65437e-08, 0.000661747, 0.441635
 2094, 718.001, 0.987499, 1.72287e-08, 0.00068915, 0.441635
 2097, 719.001, 0.987499, 1.79407e-08, 0.000717629, 0.441635
 2100, 720.001, 0.987499, 1.86806e-08, 0.000747224, 0.441635
 2103, 721.001, 0.987499, 1.94494e-08, 0.000777976, 0.441635
 2106, 722.001, 0.987499, 2.02482e-08, 0.000809928, 0.441635
 2109, 723.001, 0.987499, 2.10781e-08, 0.000843124, 0.441636
 2112, 724.001, 0.987498, 2.19403e-08, 0.00087761, 0.441636
 2115, 725.001, 0.987498, 2.28358e-08, 0.000913434, 0.441636
 2118, 726.001, 0.987498, 2.37661e-08, 0.000950643, 0.441636
 2121, 727.001, 0.987498, 2.47322e-08, 0.000989289, 0.441637
 2124, 728.001, 0.987498, 2.57356e-08, 0.00102942, 0.441637
 2127, 729.001, 0.987498, 2.67776e-08, 0.0010711, 0.441637
 2130, 730.001, 0.987498, 2.78595e-08, 0.00111438, 0.441637
 2133, 731.001, 0.987498, 2.89829e-08, 0.00115932, 0.441638
 2136, 732.001, 0.987498, 3.01492e-08, 0.00120597, 0.441638
 2139, 733.001, 0.987498, 3.136e-08, 0.0012544, 0.441638
 2142, 734.001, 0.987498, 3.26168e-08, 0.00130467, 0.441638
 2145, 735.001, 0.987498, 3.39214e-08, 0.00135686, 0.441639
 2148, 736.001, 0.987497, 3.52754e-08, 0.00141102, 0.441639
 2151, 737.001, 0.987497, 3.66806e-08, 0.00146723, 0.441639
 2154, 738.001, 0.987497, 3.81389e-08, 0.00152556, 0.44164
 2157, 739.001, 0.987497, 3.96521e-08, 0.00158608, 0.44164
 2160, 740.001, 0.987497, 4.12221e-08, 0.00164888, 0.44164
 2163, 741.001, 0.987497, 4.2851e-08, 0.00171404, 0.441641
 2166, 742.001, 0.987497, 4.45409e-08, 0.00178164, 0.441641
 2169, 743.001, 0.987497, 4.62939e-08, 0.00185176, 0.441641
 2172, 744.001, 0.987496, 4.81122e-08, 0.00192449, 0.441642
 2175, 745.001, 0.987496, 4.99982e-08, 0.00199993, 0.441642
 2178, 746.001, 0.987496, 5.19542e-08, 0.00207817, 0.441643
 2181, 747.001, 0.987496, 5.39827e-08, 0.00215931, 0.441643
 2184, 748.001, 0.987496, 5.60861e-08, 0.00224344, 0.441644
 2187, 749.001, 0.987496, 5.82672e-08, 0.00233069, 0.441644
 2190, 750.001, 0.987495, 6.05285e-08, 0.00242114, 0.441645
 2193, 751.001, 0.987495, 6.28729e-08, 0.00251492, 0.441645
 2196, 752.001, 0.987495, 6.53033e-08, 0.00261213, 0.441646
 2199, 753.001, 0.987495, 6.78226e-08, 0.00271291, 0.441646
 2202, 754.001, 0.987495, 7.0434e-08, 0.00281736, 0.441647
 2205, 755.001, 0.987494, 7.31405e-08, 0.00292562, 0.441647
 2208, 756.001, 0.987494, 7.59454e-08, 0.00303782, 0.441648
 2211, 757.001, 0.987494, 7.88521e-08, 0.00315409, 0.441649
 2214, 758.001, 0.987494, 8.18641e-08, 0.00327457, 0.441649
 2217, 759.001, 0.987494, 8.4985e-08, 0.0033994, 0.44165
 2220, 760.001, 0.987493, 8.82185e-08, 0.00352874, 0.441651
 2223, 761.001, 0.987493, 9.15684e-08, 0.00366274, 0.441652
 2226, 762.001, 0.987493, 9.50387e-08, 0.00380155, 0.441652
 2229, 763.001, 0.987492, 9.86334e-08, 0.00394534, 0.441653
 2232, 764.001, 0.987492, 1.02357e-07, 0.00409427, 0.441654
 2235, 765.001, 0.987492, 1.06213e-07, 0.00424852, 0.441655
 2238, 766.001, 0.987491, 1.10207e-07, 0.00440827, 0.441656
 2241, 767.001, 0.987491, 1.14343e-07, 0.0045737, 0.441657
 2244, 768.001, 0.987491, 1.18625e-07, 0.00474501, 0.441658
 2247, 769.001, 0.98749, 1.23059e-07, 0.00492238, 0.441659
 2250, 770.001, 0.98749, 1.27651e-07, 0.00510602, 0.44166
 2253, 771.001, 0.98749, 1.32404e-07, 0.00529614, 0.441661
 2256, 772.001, 0.987489, 1.37324e-07, 0.00549296, 0.441662
 2259, 773.001, 0.987489, 1.42417e-07, 0.0056967, 0.441663
 2262, 774.001, 0.987488, 1.47689e-07, 0.00590758, 0.441664
 2265, 775.001, 0.987488, 1.53146e-07, 0.00612584, 0.441665
 2268, 776.001, 0.987487, 1.58793e-07, 0.00635172, 0.441667
 2271, 777.001, 0.987487, 1.64637e-07, 0.00658548, 0.441668
 2274, 778.001, 0.987486, 1.70684e-07, 0.00682738, 0.441669
 2277, 779.001, 0.987486, 1.76942e-07, 0.00707767, 0.441671
 2280, 780.001, 0.987485, 1.83416e-07, 0.00733664, 0.441672
 2283, 781.001, 0.987485, 1.90114e-07, 0.00760457, 0.441673
 2286, 782.001, 0.987484, 1.97043e-07, 0.00788174, 0.441675
 2289, 783.001, 0.987484, 2.04211e-07, 0.00816846, 0.441677
 2292, 784.001, 0.987483, 2.11626e-07, 0.00846504, 0.441678
 2295, 785.001, 0.987482, 2.19295e-07, 0.00877179, 0.44168
 2298, 786.001, 0.987482, 2.27226e-07, 0.00908906, 0.441682
 2301, 787.001, 0.987481, 2.35429e-07, 0.00941716, 0.441684
 2304, 788.001, 0.98748, 2.43911e-07, 0.00975646, 0.441686
 2307, 789.001, 0.98748, 2.52683e-07, 0.0101073, 0.441687
 2310, 790.001, 0.987479, 2.61752e-07, 0.0104701, 0.441689
 2313, 791.001, 0.987478, 2.71128e-07, 0.0108451, 0.441692
 2316, 792.001, 0.987477, 2.80822e-07, 0.0112329, 0.441694
 2319, 793.001, 0.987476, 2.90844e-07, 0.0116338, 0.441696
 2322, 794.001, 0.987475, 3.01203e-07, 0.0120481, 0.441698
 2325, 795.001, 0.987475, 3.11911e-07, 0.0124764, 0.441701
 2328, 796.001, 0.987474, 3.22978e-07, 0.0129191, 0.441703
 2331, 797.001, 0.987473, 3.34417e-07, 0.0133767, 0.441706
 2334, 798.001, 0.987472, 3.46237e-07, 0.0138495, 0.441708
 2337, 799.001, 0.987471, 3.58453e-07, 0.0143381, 0.441711
 2340, 800.001, 0.987469, 3.71075e-07, 0.014843, 0.441714